Timestamp,AccelX,AccelY,AccelZ
0,-0.126785,0.036224,-1.086731
0.0105308,-0.108673,0.036224,-1.086731
0.0212341,-0.126785,0.054337,-1.086731
0.0312533,-0.126785,0.036224,-1.086731
0.0407105,-0.126785,0.036224,-1.086731
0.0514676,-0.108673,0.036224,-1.086731
0.061504,-0.126785,0.036224,-1.086731
0.0716548,-0.108673,0.036224,-1.104843
0.0818189,-0.108673,0.036224,-1.086731
0.0919801,-0.108673,0.036224,-1.086731
0.102235,-0.108673,0.036224,-1.068619
0.112313,-0.126785,0.036224,-1.086731
0.122469,-0.108673,0.036224,-1.086731
0.132623,-0.126785,0.036224,-1.068619
0.14278,-0.126785,0.054337,-1.068619
0.153049,-0.126785,0.036224,-1.086731
0.163119,-0.126785,0.036224,-1.086731
0.173288,-0.126785,0.036224,-1.086731
0.183444,-0.108673,0.036224,-1.086731
0.193616,-0.108673,0.036224,-1.068619
0.203675,-0.126785,0.036224,-1.086731
0.213831,-0.108673,0.036224,-1.086731
0.223985,-0.126785,0.036224,-1.086731
0.234149,-0.108673,0.036224,-1.086731
0.244306,-0.108673,0.036224,-1.086731
0.254501,-0.108673,0.054337,-1.086731
0.264699,-0.108673,0.036224,-1.086731
0.274949,-0.126785,0.036224,-1.086731
0.285103,-0.108673,0.036224,-1.086731
0.295194,-0.126785,0.036224,-1.086731
0.305349,-0.108673,0.036224,-1.068619
0.315058,-0.108673,0.036224,-1.086731
0.326031,-0.126785,0.036224,-1.086731
0.336118,-0.108673,0.036224,-1.068619
0.346216,-0.108673,0.054337,-1.068619
0.356147,-0.108673,0.036224,-1.068619
0.366541,-0.108673,0.054337,-1.086731
0.376684,-0.126785,0.036224,-1.068619
0.386732,-0.108673,0.054337,-1.068619
0.397081,-0.126785,0.036224,-1.086731
0.407238,-0.108673,0.036224,-1.086731
0.417402,-0.126785,0.036224,-1.104843
0.427569,-0.108673,0.054337,-1.086731
0.43772,-0.108673,0.036224,-1.086731
0.447883,-0.108673,0.036224,-1.086731
0.458054,-0.126785,0.036224,-1.086731
0.468206,-0.108673,0.054337,-1.086731
0.477846,-0.108673,0.036224,-1.086731
0.488373,-0.108673,0.054337,-1.068619
0.498765,-0.108673,0.036224,-1.086731
0.508936,-0.108673,0.036224,-1.086731
0.519182,-0.108673,0.054337,-1.086731
0.52911,-0.108673,0.054337,-1.086731
0.539332,-0.108673,0.036224,-1.086731
0.549576,-0.108673,0.036224,-1.086731
0.559961,-0.126785,0.036224,-1.086731
0.5701,-0.108673,0.054337,-1.068619
0.580321,-0.108673,0.054337,-1.086731
0.590351,-0.126785,0.036224,-1.068619
0.601409,-0.108673,0.036224,-1.086731
0.610335,-0.108673,0.036224,-1.086731
0.620207,-0.108673,0.036224,-1.086731
0.632951,-0.126785,0.036224,-1.068619
0.641251,-0.126785,0.036224,-1.086731
0.651389,-0.108673,0.054337,-1.086731
0.661583,-0.108673,0.036224,-1.086731
0.671644,-0.126785,0.036224,-1.086731
0.68179,-0.108673,0.036224,-1.086731
0.691941,-0.108673,0.036224,-1.086731
0.70224,-0.126785,0.036224,-1.086731
0.712279,-0.108673,0.054337,-1.068619
0.722428,-0.108673,0.054337,-1.068619
0.732596,-0.108673,0.036224,-1.086731
0.742755,-0.108673,0.036224,-1.068619
0.752959,-0.126785,0.054337,-1.086731
0.763115,-0.090561,0.036224,-1.086731
0.773287,-0.108673,0.036224,-1.086731
0.783439,-0.108673,0.036224,-1.086731
0.793621,-0.126785,0.036224,-1.068619
0.803834,-0.108673,0.036224,-1.086731
0.813934,-0.126785,0.036224,-1.068619
0.8241,-0.126785,0.036224,-1.086731
0.834271,-0.126785,0.036224,-1.068619
0.844427,-0.126785,0.036224,-1.086731
0.854746,-0.108673,0.036224,-1.086731
0.864828,-0.108673,0.036224,-1.086731
0.875075,-0.126785,0.036224,-1.086731
0.885182,-0.108673,0.036224,-1.068619
0.895332,-0.108673,0.036224,-1.086731
0.90559,-0.108673,0.036224,-1.086731
0.915685,-0.108673,0.054337,-1.086731
0.925842,-0.108673,0.036224,-1.086731
0.936038,-0.108673,0.036224,-1.086731
0.946171,-0.126785,0.036224,-1.086731
0.956988,-0.108673,0.036224,-1.068619
0.966729,-0.108673,0.036224,-1.104843
0.976686,-0.108673,0.036224,-1.086731
0.986718,-0.108673,0.036224,-1.086731
0.997078,-0.108673,0.036224,-1.086731
1.00723,-0.126785,0.036224,-1.068619
1.0174,-0.108673,0.054337,-1.068619
1.02772,-0.108673,0.036224,-1.068619
1.03787,-0.108673,0.036224,-1.086731
1.04802,-0.108673,0.036224,-1.086731
1.05819,-0.108673,0.036224,-1.086731
1.06842,-0.108673,0.054337,-1.086731
1.07856,-0.108673,0.054337,-1.086731
1.08871,-0.108673,0.054337,-1.068619
1.09885,-0.108673,0.036224,-1.086731
1.10902,-0.108673,0.054337,-1.086731
1.1192,-0.126785,0.036224,-1.068619
1.12936,-0.108673,0.036224,-1.086731
1.13951,-0.108673,0.054337,-1.086731
1.14967,-0.108673,0.036224,-1.086731
1.15992,-0.108673,0.036224,-1.068619
1.17,-0.108673,0.054337,-1.086731
1.18017,-0.108673,0.036224,-1.068619
1.19044,-0.108673,0.036224,-1.086731
1.20052,-0.108673,0.036224,-1.086731
1.21067,-0.126785,0.054337,-1.086731
1.22083,-0.108673,0.036224,-1.086731
1.23099,-0.126785,0.036224,-1.068619
1.24115,-0.126785,0.036224,-1.086731
1.25134,-0.126785,0.036224,-1.068619
1.26149,-0.126785,0.036224,-1.086731
1.27164,-0.108673,0.036224,-1.068619
1.28182,-0.108673,0.054337,-1.086731
1.29198,-0.108673,0.036224,-1.086731
1.30214,-0.126785,0.036224,-1.068619
1.3123,-0.108673,0.054337,-1.086731
1.32246,-0.108673,0.036224,-1.068619
1.33262,-0.108673,0.054337,-1.086731
1.3428,-0.108673,0.054337,-1.086731
1.35294,-0.108673,0.036224,-1.086731
1.36315,-0.108673,0.036224,-1.086731
1.37331,-0.108673,0.054337,-1.086731
1.38345,-0.126785,0.036224,-1.068619
1.39363,-0.126785,0.054337,-1.086731
1.40378,-0.108673,0.036224,-1.068619
1.41408,-0.126785,0.054337,-1.086731
1.42437,-0.108673,0.036224,-1.086731
1.43444,-0.108673,0.036224,-1.086731
1.44455,-0.108673,0.036224,-1.086731
1.45473,-0.108673,0.036224,-1.086731
1.46502,-0.108673,0.054337,-1.086731
1.47505,-0.108673,0.036224,-1.086731
1.48523,-0.108673,0.036224,-1.086731
1.49539,-0.108673,0.054337,-1.086731
1.50557,-0.126785,0.036224,-1.068619
1.51571,-0.108673,0.054337,-1.086731
1.52596,-0.108673,0.036224,-1.086731
1.53615,-0.108673,0.054337,-1.068619
1.54621,-0.108673,0.054337,-1.086731
1.55638,-0.108673,0.036224,-1.086731
1.56652,-0.108673,0.036224,-1.086731
1.57678,-0.108673,0.036224,-1.068619
1.58707,-0.108673,0.054337,-1.086731
1.59725,-0.108673,0.036224,-1.068619
1.60741,-0.108673,0.036224,-1.068619
1.61765,-0.108673,0.036224,-1.086731
1.62773,-0.108673,0.036224,-1.104843
1.63794,-0.126785,0.036224,-1.086731
1.64809,-0.126785,0.036224,-1.086731
1.65824,-0.126785,0.036224,-1.086731
1.6685,-0.108673,0.036224,-1.086731
1.67847,-0.108673,0.036224,-1.068619
1.6886,-0.126785,0.036224,-1.086731
1.6989,-0.108673,0.054337,-1.068619
1.70894,-0.108673,0.036224,-1.086731
1.7192,-0.108673,0.036224,-1.086731
1.72927,-0.108673,0.054337,-1.086731
1.73943,-0.108673,0.036224,-1.086731
1.74963,-0.108673,0.054337,-1.068619
1.75978,-0.108673,0.036224,-1.086731
1.76982,-0.126785,0.036224,-1.068619
1.77997,-0.108673,0.036224,-1.086731
1.79014,-0.108673,0.036224,-1.086731
1.80031,-0.108673,0.054337,-1.068619
1.81047,-0.108673,0.036224,-1.086731
1.82063,-0.108673,0.036224,-1.086731
1.8308,-0.108673,0.036224,-1.086731
1.84097,-0.108673,0.036224,-1.086731
1.85113,-0.108673,0.054337,-1.086731
1.86128,-0.108673,0.036224,-1.086731
1.87144,-0.108673,0.036224,-1.086731
1.88161,-0.108673,0.036224,-1.068619
1.89178,-0.108673,0.036224,-1.086731
1.90194,-0.126785,0.036224,-1.086731
1.91214,-0.126785,0.036224,-1.086731
1.92231,-0.108673,0.036224,-1.086731
1.93248,-0.126785,0.036224,-1.086731
1.94264,-0.108673,0.036224,-1.086731
1.9528,-0.108673,0.036224,-1.086731
1.96296,-0.108673,0.036224,-1.086731
1.97312,-0.108673,0.054337,-1.086731
1.98328,-0.108673,0.054337,-1.086731
1.99317,-0.108673,0.036224,-1.086731
2.00385,-0.108673,0.036224,-1.086731
2.01369,-0.126785,0.036224,-1.086731
2.02367,-0.108673,0.036224,-1.086731
2.03423,-0.108673,0.036224,-1.086731
2.04439,-0.108673,0.036224,-1.086731
2.05453,-0.126785,0.036224,-1.086731
2.06472,-0.108673,0.054337,-1.086731
2.07488,-0.108673,0.054337,-1.068619
2.08505,-0.108673,0.054337,-1.086731
2.09522,-0.108673,0.036224,-1.086731
2.10537,-0.108673,0.054337,-1.068619
2.11555,-0.108673,0.036224,-1.086731
2.12574,-0.108673,0.036224,-1.068619
2.13589,-0.108673,0.036224,-1.086731
2.14606,-0.108673,0.054337,-1.086731
2.15677,-0.108673,0.054337,-1.086731
2.16638,-0.126785,0.036224,-1.086731
2.17651,-0.108673,0.036224,-1.086731
2.18663,-0.126785,0.054337,-1.086731
2.19672,-0.108673,0.036224,-1.086731
2.20712,-0.108673,0.036224,-1.104843
2.21725,-0.108673,0.036224,-1.086731
2.22742,-0.108673,0.036224,-1.086731
2.23757,-0.108673,0.036224,-1.086731
2.24794,-0.108673,0.036224,-1.086731
2.25792,-0.108673,0.054337,-1.086731
2.26805,-0.108673,0.054337,-1.068619
2.27832,-0.126785,0.036224,-1.068619
2.28839,-0.126785,0.036224,-1.086731
2.29855,-0.126785,0.036224,-1.086731
2.30873,-0.108673,0.036224,-1.086731
2.31888,-0.108673,0.036224,-1.086731
2.32904,-0.108673,0.036224,-1.086731
2.3392,-0.108673,0.036224,-1.086731
2.34937,-0.108673,0.054337,-1.086731
2.35958,-0.108673,0.036224,-1.086731
2.36973,-0.126785,0.036224,-1.086731
2.37996,-0.108673,0.036224,-1.086731
2.39005,-0.108673,0.036224,-1.086731
2.40022,-0.108673,0.054337,-1.086731
2.41045,-0.108673,0.036224,-1.086731
2.42056,-0.108673,0.036224,-1.086731
2.43072,-0.108673,0.054337,-1.086731
2.4409,-0.108673,0.036224,-1.086731
2.45107,-0.126785,0.036224,-1.086731
2.46124,-0.108673,0.054337,-1.086731
2.47138,-0.108673,0.054337,-1.068619
2.48156,-0.126785,0.036224,-1.086731
2.49173,-0.108673,0.054337,-1.068619
2.50188,-0.108673,0.036224,-1.086731
2.51204,-0.108673,0.054337,-1.068619
2.52221,-0.108673,0.036224,-1.068619
2.53237,-0.126785,0.036224,-1.068619
2.54254,-0.126785,0.036224,-1.068619
2.55272,-0.126785,0.036224,-1.086731
2.56286,-0.108673,0.036224,-1.086731
2.5731,-0.108673,0.036224,-1.104843
2.58319,-0.108673,0.036224,-1.104843
2.59333,-0.126785,0.036224,-1.104843
2.60348,-0.126785,0.036224,-1.068619
2.61365,-0.126785,0.036224,-1.068619
2.62392,-0.126785,0.036224,-1.086731
2.63396,-0.108673,0.036224,-1.086731
2.64419,-0.108673,0.036224,-1.086731
2.65434,-0.108673,0.036224,-1.086731
2.6645,-0.108673,0.036224,-1.086731
2.67478,-0.126785,0.036224,-1.086731
2.68485,-0.126785,0.036224,-1.086731
2.69503,-0.108673,0.054337,-1.086731
2.7052,-0.108673,0.054337,-1.086731
2.71535,-0.108673,0.036224,-1.086731
2.72541,-0.126785,0.036224,-1.068619
2.7356,-0.108673,0.036224,-1.086731
2.74574,-0.108673,0.054337,-1.086731
2.75593,-0.108673,0.036224,-1.086731
2.76608,-0.108673,0.036224,-1.086731
2.77626,-0.126785,0.036224,-1.086731
2.78647,-0.126785,0.036224,-1.086731
2.79658,-0.126785,0.036224,-1.086731
2.80669,-0.108673,0.054337,-1.086731
2.81707,-0.108673,0.036224,-1.086731
2.82724,-0.108673,0.036224,-1.086731
2.8374,-0.108673,0.054337,-1.068619
2.84757,-0.108673,0.054337,-1.086731
2.85771,-0.108673,0.036224,-1.068619
2.86787,-0.126785,0.036224,-1.086731
2.87805,-0.108673,0.036224,-1.086731
2.8882,-0.108673,0.036224,-1.086731
2.89837,-0.108673,0.036224,-1.086731
2.90853,-0.108673,0.036224,-1.086731
2.91873,-0.108673,0.054337,-1.086731
2.92888,-0.108673,0.054337,-1.086731
2.93905,-0.108673,0.036224,-1.086731
2.9492,-0.108673,0.054337,-1.086731
2.95936,-0.108673,0.036224,-1.104843
2.96952,-0.108673,0.054337,-1.086731
2.97978,-0.108673,0.036224,-1.086731
2.98988,-0.108673,0.036224,-1.086731
3.00002,-0.108673,0.036224,-1.086731
3.01019,-0.108673,0.054337,-1.086731
3.02034,-0.126785,0.036224,-1.086731
3.03051,-0.126785,0.036224,-1.086731
3.04068,-0.108673,0.036224,-1.086731
3.05084,-0.126785,0.036224,-1.068619
3.06111,-0.108673,0.036224,-1.086731
3.07093,-0.108673,0.036224,-1.086731
3.08151,-0.108673,0.036224,-1.086731
3.09157,-0.108673,0.054337,-1.086731
3.10171,-0.108673,0.054337,-1.086731
3.11188,-0.108673,0.054337,-1.086731
3.12202,-0.108673,0.036224,-1.086731
3.1322,-0.108673,0.036224,-1.086731
3.14238,-0.108673,0.036224,-1.086731
3.15251,-0.108673,0.054337,-1.068619
3.16269,-0.126785,0.036224,-1.086731
3.17284,-0.108673,0.036224,-1.104843
3.18303,-0.108673,0.036224,-1.086731
3.19331,-0.108673,0.054337,-1.086731
3.20336,-0.108673,0.054337,-1.086731
3.21351,-0.108673,0.036224,-1.086731
3.22366,-0.108673,0.036224,-1.086731
3.23383,-0.108673,0.036224,-1.068619
3.24398,-0.126785,0.036224,-1.086731
3.25418,-0.108673,0.036224,-1.068619
3.26444,-0.108673,0.036224,-1.086731
3.27457,-0.126785,0.036224,-1.086731
3.28483,-0.126785,0.036224,-1.086731
3.29493,-0.126785,0.036224,-1.086731
3.3051,-0.108673,0.054337,-1.086731
3.31526,-0.108673,0.054337,-1.086731
3.3255,-0.108673,0.054337,-1.086731
3.33561,-0.108673,0.036224,-1.068619
3.34577,-0.108673,0.054337,-1.086731
3.35607,-0.126785,0.036224,-1.086731
3.36616,-0.126785,0.036224,-1.086731
3.37639,-0.108673,0.054337,-1.086731
3.38647,-0.108673,0.036224,-1.086731
3.39662,-0.108673,0.054337,-1.086731
3.4067,-0.108673,0.036224,-1.068619
3.41708,-0.108673,0.036224,-1.104843
3.42734,-0.108673,0.054337,-1.068619
3.43741,-0.108673,0.036224,-1.086731
3.44757,-0.108673,0.054337,-1.086731
3.45773,-0.108673,0.036224,-1.086731
3.46796,-0.126785,0.036224,-1.086731
3.478,-0.108673,0.054337,-1.068619
3.48815,-0.108673,0.054337,-1.068619
3.49829,-0.108673,0.054337,-1.086731
3.50845,-0.108673,0.036224,-1.086731
3.51861,-0.108673,0.036224,-1.086731
3.52828,-0.108673,0.036224,-1.086731
3.539,-0.126785,0.036224,-1.068619
3.54909,-0.108673,0.036224,-1.068619
3.55923,-0.108673,0.054337,-1.086731
3.56941,-0.108673,0.036224,-1.086731
3.57956,-0.126785,0.036224,-1.086731
3.58971,-0.108673,0.036224,-1.086731
3.59988,-0.108673,0.036224,-1.086731
3.61005,-0.108673,0.036224,-1.086731
3.62018,-0.108673,0.054337,-1.086731
3.63035,-0.108673,0.054337,-1.086731
3.64055,-0.108673,0.054337,-1.086731
3.65071,-0.126785,0.036224,-1.086731
3.66095,-0.108673,0.054337,-1.086731
3.67103,-0.108673,0.036224,-1.086731
3.68129,-0.108673,0.036224,-1.086731
3.69135,-0.126785,0.036224,-1.086731
3.70166,-0.108673,0.054337,-1.086731
3.7117,-0.108673,0.054337,-1.086731
3.72183,-0.108673,0.036224,-1.086731
3.73201,-0.108673,0.036224,-1.086731
3.74217,-0.126785,0.054337,-1.068619
3.75237,-0.126785,0.036224,-1.086731
3.76254,-0.108673,0.054337,-1.086731
3.77269,-0.108673,0.054337,-1.086731
3.78292,-0.108673,0.054337,-1.086731
3.79314,-0.108673,0.036224,-1.086731
3.80319,-0.108673,0.036224,-1.086731
3.81334,-0.108673,0.036224,-1.086731
3.82349,-0.108673,0.036224,-1.086731
3.83366,-0.108673,0.036224,-1.086731
3.84382,-0.126785,0.036224,-1.086731
3.85399,-0.126785,0.036224,-1.068619
3.86416,-0.108673,0.036224,-1.086731
3.87431,-0.108673,0.036224,-1.086731
3.88457,-0.108673,0.036224,-1.086731
3.89476,-0.126785,0.036224,-1.086731
3.90491,-0.108673,0.054337,-1.068619
3.9151,-0.108673,0.036224,-1.086731
3.92526,-0.108673,0.036224,-1.086731
3.93543,-0.108673,0.036224,-1.086731
3.94561,-0.108673,0.036224,-1.068619
3.95578,-0.108673,0.036224,-1.068619
3.96594,-0.126785,0.054337,-1.068619
3.9761,-0.108673,0.054337,-1.086731
3.98626,-0.126785,0.036224,-1.086731
3.99604,-0.108673,0.054337,-1.086731
4.00664,-0.108673,0.036224,-1.086731
4.0169,-0.108673,0.036224,-1.068619
4.02695,-0.108673,0.036224,-1.086731
4.03729,-0.126785,0.054337,-1.086731
4.04743,-0.108673,0.054337,-1.086731
4.05768,-0.108673,0.054337,-1.086731
4.06769,-0.126785,0.036224,-1.086731
4.07784,-0.108673,0.036224,-1.086731
4.088,-0.108673,0.054337,-1.068619
4.09816,-0.108673,0.036224,-1.086731
4.10832,-0.108673,0.036224,-1.086731
4.11848,-0.126785,0.036224,-1.086731
4.12873,-0.108673,0.036224,-1.086731
4.1388,-0.126785,0.036224,-1.068619
4.14897,-0.126785,0.036224,-1.068619
4.15913,-0.126785,0.036224,-1.086731
4.1693,-0.108673,0.054337,-1.068619
4.17956,-0.108673,0.054337,-1.086731
4.18962,-0.108673,0.018112,-1.086731
4.1998,-0.126785,0.036224,-1.086731
4.20996,-0.108673,0.036224,-1.086731
4.22011,-0.126785,0.036224,-1.068619
4.23037,-0.126785,0.036224,-1.086731
4.24047,-0.108673,0.054337,-1.086731
4.25062,-0.108673,0.036224,-1.086731
4.26078,-0.108673,0.036224,-1.086731
4.27095,-0.126785,0.036224,-1.086731
4.28099,-0.126785,0.036224,-1.086731
4.29116,-0.126785,0.054337,-1.086731
4.30133,-0.126785,0.054337,-1.086731
4.31148,-0.108673,0.054337,-1.068619
4.32163,-0.108673,0.054337,-1.086731
4.33181,-0.126785,0.036224,-1.086731
4.34196,-0.108673,0.054337,-1.086731
4.35213,-0.108673,0.036224,-1.086731
4.36238,-0.108673,0.054337,-1.086731
4.37252,-0.126785,0.036224,-1.086731
4.38277,-0.108673,0.036224,-1.086731
4.39291,-0.108673,0.036224,-1.086731
4.403,-0.108673,0.054337,-1.086731
4.41317,-0.126785,0.036224,-1.086731
4.42331,-0.108673,0.054337,-1.086731
4.43348,-0.108673,0.054337,-1.086731
4.44363,-0.126785,0.036224,-1.086731
4.4533,-0.108673,0.036224,-1.086731
4.46312,-0.108673,0.054337,-1.086731
4.47413,-0.108673,0.036224,-1.086731
4.48436,-0.108673,0.054337,-1.086731
4.49435,-0.126785,0.054337,-1.068619
4.50453,-0.108673,0.054337,-1.086731
4.51473,-0.126785,0.036224,-1.086731
4.5249,-0.108673,0.036224,-1.086731
4.53514,-0.126785,0.036224,-1.086731
4.54524,-0.126785,0.036224,-1.086731
4.5554,-0.126785,0.036224,-1.086731
4.56575,-0.126785,0.036224,-1.086731
4.57574,-0.108673,0.054337,-1.068619
4.5859,-0.108673,0.036224,-1.086731
4.59609,-0.108673,0.054337,-1.068619
4.60623,-0.126785,0.036224,-1.086731
4.6164,-0.108673,0.054337,-1.086731
4.62653,-0.108673,0.054337,-1.086731
4.63669,-0.108673,0.054337,-1.068619
4.64737,-0.108673,0.036224,-1.068619
4.65726,-0.126785,0.036224,-1.068619
4.6676,-0.126785,0.054337,-1.068619
4.67772,-0.126785,0.036224,-1.086731
4.68785,-0.126785,0.036224,-1.086731
4.69799,-0.108673,0.036224,-1.086731
4.70815,-0.126785,0.036224,-1.086731
4.71832,-0.126785,0.036224,-1.086731
4.72846,-0.108673,0.036224,-1.086731
4.73863,-0.108673,0.036224,-1.086731
4.74902,-0.126785,0.036224,-1.086731
4.75899,-0.108673,0.054337,-1.086731
4.76913,-0.126785,0.036224,-1.086731
4.77947,-0.108673,0.054337,-1.086731
4.78957,-0.126785,0.036224,-1.086731
4.79975,-0.126785,0.054337,-1.068619
4.80989,-0.126785,0.036224,-1.086731
4.82004,-0.126785,0.036224,-1.086731
4.83019,-0.126785,0.036224,-1.086731
4.84036,-0.108673,0.036224,-1.086731
4.85052,-0.108673,0.036224,-1.086731
4.86069,-0.126785,0.036224,-1.086731
4.87085,-0.108673,0.036224,-1.086731
4.881,-0.126785,0.036224,-1.068619
4.89118,-0.108673,0.054337,-1.068619
4.90134,-0.108673,0.036224,-1.086731
4.9116,-0.126785,0.054337,-1.086731
4.92167,-0.108673,0.036224,-1.086731
4.93183,-0.108673,0.036224,-1.086731
4.942,-0.108673,0.036224,-1.086731
4.95216,-0.108673,0.036224,-1.086731
4.96233,-0.126785,0.036224,-1.086731
4.9725,-0.126785,0.036224,-1.086731
4.98266,-0.126785,0.054337,-1.086731
4.99282,-0.108673,0.054337,-1.086731
5.00299,-0.108673,0.054337,-1.086731
5.01315,-0.108673,0.036224,-1.086731
5.02339,-0.126785,0.054337,-1.086731
5.03354,-0.126785,0.036224,-1.104843
5.04371,-0.108673,0.054337,-1.068619
5.05385,-0.126785,0.054337,-1.086731
5.06401,-0.108673,0.036224,-1.086731
5.07417,-0.126785,0.036224,-1.068619
5.08448,-0.108673,0.054337,-1.086731
5.09452,-0.108673,0.036224,-1.086731
5.10473,-0.108673,0.054337,-1.086731
5.11489,-0.108673,0.036224,-1.086731
5.12507,-0.108673,0.036224,-1.086731
5.13532,-0.108673,0.036224,-1.086731
5.1454,-0.108673,0.036224,-1.086731
5.15557,-0.126785,0.036224,-1.086731
5.16574,-0.108673,0.054337,-1.068619
5.1759,-0.108673,0.054337,-1.086731
5.18619,-0.126785,0.054337,-1.086731
5.19627,-0.108673,0.036224,-1.086731
5.20642,-0.108673,0.036224,-1.068619
5.21659,-0.126785,0.036224,-1.086731
5.22669,-0.108673,0.036224,-1.086731
5.23676,-0.126785,0.018112,-1.086731
5.24707,-0.126785,0.036224,-1.086731
5.25725,-0.108673,0.036224,-1.086731
5.26741,-0.108673,0.036224,-1.086731
5.27758,-0.126785,0.036224,-1.086731
5.28776,-0.108673,0.036224,-1.068619
5.29789,-0.126785,0.054337,-1.086731
5.30806,-0.108673,0.054337,-1.068619
5.31823,-0.126785,0.054337,-1.068619
5.32839,-0.126785,0.036224,-1.086731
5.33854,-0.126785,0.036224,-1.104843
5.34871,-0.108673,0.036224,-1.104843
5.35893,-0.108673,0.036224,-1.086731
5.36908,-0.126785,0.036224,-1.086731
5.37924,-0.126785,0.036224,-1.086731
5.3894,-0.126785,0.036224,-1.068619
5.39956,-0.126785,0.036224,-1.086731
5.40981,-0.108673,0.036224,-1.086731
5.41988,-0.126785,0.036224,-1.086731
5.43004,-0.108673,0.036224,-1.086731
5.4402,-0.126785,0.036224,-1.086731
5.45037,-0.126785,0.036224,-1.086731
5.46053,-0.126785,0.036224,-1.086731
5.47079,-0.126785,0.036224,-1.086731
5.48091,-0.126785,0.036224,-1.068619
5.49106,-0.126785,0.036224,-1.104843
5.50121,-0.126785,0.036224,-1.086731
5.51138,-0.108673,0.054337,-1.086731
5.52156,-0.108673,0.054337,-1.068619
5.53173,-0.126785,0.036224,-1.086731
5.54188,-0.108673,0.036224,-1.086731
5.55204,-0.108673,0.036224,-1.086731
5.5622,-0.108673,0.054337,-1.086731
5.57238,-0.126785,0.036224,-1.086731
5.58252,-0.126785,0.036224,-1.086731
5.59269,-0.126785,0.054337,-1.104843
5.60287,-0.108673,0.036224,-1.086731
5.61303,-0.126785,0.036224,-1.086731
5.6232,-0.108673,0.036224,-1.086731
5.63333,-0.108673,0.054337,-1.086731
5.64351,-0.108673,0.036224,-1.086731
5.65366,-0.126785,0.054337,-1.086731
5.66387,-0.108673,0.054337,-1.086731
5.67401,-0.108673,0.036224,-1.086731
5.68418,-0.108673,0.036224,-1.086731
5.69433,-0.126785,0.036224,-1.086731
5.70451,-0.108673,0.054337,-1.068619
5.71471,-0.108673,0.036224,-1.086731
5.72489,-0.108673,0.036224,-1.104843
5.73505,-0.108673,0.054337,-1.086731
5.74883,-0.108673,0.054337,-1.086731
5.75537,-0.108673,0.036224,-1.068619
5.76553,-0.126785,0.036224,-1.086731
5.77567,-0.108673,0.036224,-1.068619
5.78598,-0.108673,0.036224,-1.086731
5.79597,-0.108673,0.036224,-1.086731
5.80613,-0.108673,0.054337,-1.086731
5.81629,-0.108673,0.054337,-1.086731
5.82645,-0.108673,0.036224,-1.086731
5.83659,-0.108673,0.036224,-1.086731
5.8467,-0.108673,0.054337,-1.086731
5.85709,-0.126785,0.036224,-1.086731
5.86722,-0.126785,0.036224,-1.086731
5.87739,-0.108673,0.036224,-1.086731
5.88755,-0.126785,0.036224,-1.086731
5.89773,-0.108673,0.036224,-1.086731
5.9079,-0.108673,0.054337,-1.086731
5.91804,-0.126785,0.036224,-1.086731
5.92848,-0.126785,0.036224,-1.086731
5.93844,-0.108673,0.036224,-1.086731
5.9486,-0.126785,0.036224,-1.086731
5.95874,-0.108673,0.054337,-1.086731
5.96889,-0.108673,0.054337,-1.086731
5.97906,-0.126785,0.054337,-1.068619
5.9892,-0.126785,0.054337,-1.068619
5.99958,-0.126785,0.054337,-1.068619
6.00911,-0.108673,0.036224,-1.068619
6.01978,-0.108673,0.036224,-1.068619
6.02996,-0.108673,0.036224,-1.086731
6.0401,-0.108673,0.036224,-1.086731
6.05027,-0.126785,0.054337,-1.086731
6.0604,-0.108673,0.054337,-1.086731
6.07056,-0.126785,0.036224,-1.104843
6.0807,-0.108673,0.054337,-1.068619
6.091,-0.108673,0.036224,-1.086731
6.10108,-0.108673,0.054337,-1.086731
6.11122,-0.126785,0.036224,-1.086731
6.12138,-0.108673,0.054337,-1.068619
6.13154,-0.108673,0.036224,-1.086731
6.1418,-0.108673,0.054337,-1.068619
6.15187,-0.126785,0.054337,-1.086731
6.16216,-0.126785,0.036224,-1.086731
6.17232,-0.108673,0.054337,-1.086731
6.18248,-0.108673,0.036224,-1.086731
6.19282,-0.108673,0.054337,-1.086731
6.203,-0.108673,0.054337,-1.086731
6.21316,-0.108673,0.054337,-1.086731
6.22331,-0.108673,0.036224,-1.068619
6.23348,-0.108673,0.036224,-1.086731
6.24362,-0.108673,0.054337,-1.068619
6.25382,-0.126785,0.054337,-1.086731
6.26397,-0.108673,0.054337,-1.086731
6.27415,-0.126785,0.036224,-1.086731
6.28431,-0.108673,0.036224,-1.086731
6.29447,-0.108673,0.054337,-1.068619
6.3047,-0.126785,0.036224,-1.086731
6.31485,-0.108673,0.036224,-1.086731
6.32502,-0.126785,0.036224,-1.068619
6.33518,-0.126785,0.036224,-1.086731
6.34535,-0.126785,0.036224,-1.086731
6.35541,-0.126785,0.036224,-1.086731
6.36575,-0.108673,0.054337,-1.068619
6.3759,-0.108673,0.036224,-1.086731
6.3862,-0.108673,0.036224,-1.068619
6.39634,-0.126785,0.036224,-1.068619
6.40644,-0.108673,0.036224,-1.086731
6.41716,-0.126785,0.036224,-1.086731
6.42687,-0.126785,0.036224,-1.086731
6.43717,-0.126785,0.036224,-1.086731
6.44728,-0.108673,0.054337,-1.086731
6.45746,-0.108673,0.054337,-1.086731
6.46762,-0.126785,0.036224,-1.086731
6.47777,-0.108673,0.054337,-1.086731
6.48801,-0.108673,0.054337,-1.068619
6.49811,-0.126785,0.036224,-1.086731
6.50827,-0.126785,0.036224,-1.086731
6.51843,-0.126785,0.036224,-1.068619
6.52872,-0.108673,0.054337,-1.086731
6.53875,-0.126785,0.036224,-1.068619
6.54892,-0.126785,0.036224,-1.086731
6.55909,-0.108673,0.036224,-1.104843
6.56932,-0.126785,0.036224,-1.086731
6.57947,-0.108673,0.036224,-1.086731
6.58961,-0.108673,0.054337,-1.068619
6.59978,-0.108673,0.054337,-1.086731
6.60994,-0.108673,0.036224,-1.086731
6.62009,-0.126785,0.036224,-1.086731
6.63025,-0.108673,0.036224,-1.086731
6.64043,-0.108673,0.054337,-1.086731
6.65057,-0.126785,0.036224,-1.086731
6.66088,-0.108673,0.054337,-1.068619
6.67095,-0.126785,0.036224,-1.068619
6.68109,-0.126785,0.036224,-1.086731
6.69095,-0.126785,0.054337,-1.086731
6.70043,-0.126785,0.036224,-1.086731
6.71182,-0.108673,0.054337,-1.068619
6.72187,-0.126785,0.036224,-1.086731
6.73203,-0.126785,0.036224,-1.086731
6.74238,-0.108673,0.036224,-1.086731
6.75243,-0.108673,0.036224,-1.086731
6.76257,-0.108673,0.054337,-1.086731
6.77274,-0.108673,0.036224,-1.086731
6.78286,-0.108673,0.036224,-1.086731
6.79317,-0.108673,0.054337,-1.086731
6.80321,-0.108673,0.036224,-1.086731
6.81338,-0.108673,0.036224,-1.086731
6.82353,-0.126785,0.036224,-1.086731
6.83368,-0.108673,0.054337,-1.086731
6.84395,-0.108673,0.054337,-1.086731
6.85402,-0.126785,0.054337,-1.086731
6.8642,-0.108673,0.054337,-1.086731
6.87436,-0.108673,0.054337,-1.068619
6.88452,-0.126785,0.036224,-1.086731
6.89458,-0.126785,0.036224,-1.086731
6.90479,-0.108673,0.054337,-1.086731
6.91495,-0.108673,0.036224,-1.086731
6.92513,-0.108673,0.054337,-1.068619
6.93527,-0.126785,0.036224,-1.086731
6.9457,-0.108673,0.036224,-1.086731
6.95562,-0.108673,0.036224,-1.086731
6.96573,-0.108673,0.054337,-1.086731
6.9759,-0.108673,0.036224,-1.086731
6.98606,-0.108673,0.054337,-1.086731
6.99638,-0.108673,0.054337,-1.068619
7.0064,-0.108673,0.036224,-1.104843
7.01657,-0.108673,0.036224,-1.086731
7.02671,-0.108673,0.036224,-1.086731
7.03678,-0.126785,0.054337,-1.086731
7.04714,-0.108673,0.036224,-1.068619
7.05723,-0.126785,0.036224,-1.086731
7.0674,-0.126785,0.036224,-1.068619
7.07756,-0.126785,0.036224,-1.086731
7.08781,-0.108673,0.036224,-1.086731
7.09789,-0.126785,0.036224,-1.086731
7.10807,-0.108673,0.054337,-1.086731
7.11822,-0.108673,0.036224,-1.086731
7.12837,-0.108673,0.054337,-1.086731
7.13853,-0.108673,0.054337,-1.086731
7.14871,-0.126785,0.036224,-1.086731
7.15886,-0.108673,0.036224,-1.086731
7.16963,-0.126785,0.036224,-1.086731
7.1793,-0.108673,0.036224,-1.086731
7.18942,-0.108673,0.054337,-1.068619
7.1996,-0.108673,0.054337,-1.068619
7.20963,-0.108673,0.054337,-1.086731
7.2198,-0.108673,0.036224,-1.086731
7.22995,-0.108673,0.036224,-1.086731
7.2401,-0.108673,0.054337,-1.086731
7.25045,-0.108673,0.036224,-1.086731
7.26039,-0.108673,0.036224,-1.086731
7.27055,-0.108673,0.036224,-1.086731
7.2807,-0.126785,0.036224,-1.086731
7.29089,-0.108673,0.036224,-1.086731
7.30106,-0.108673,0.036224,-1.086731
7.31122,-0.108673,0.054337,-1.068619
7.32138,-0.108673,0.036224,-1.086731
7.33154,-0.108673,0.036224,-1.086731
7.34169,-0.108673,0.036224,-1.086731
7.35187,-0.108673,0.036224,-1.086731
7.36208,-0.126785,0.036224,-1.068619
7.37224,-0.126785,0.036224,-1.086731
7.38238,-0.108673,0.036224,-1.086731
7.39253,-0.126785,0.054337,-1.086731
7.4027,-0.108673,0.054337,-1.086731
7.41288,-0.108673,0.054337,-1.086731
7.42303,-0.108673,0.054337,-1.086731
7.43319,-0.108673,0.054337,-1.086731
7.44335,-0.108673,0.036224,-1.086731
7.45351,-0.108673,0.054337,-1.086731
7.46367,-0.108673,0.036224,-1.086731
7.47384,-0.108673,0.036224,-1.068619
7.48399,-0.126785,0.036224,-1.086731
7.49415,-0.108673,0.054337,-1.086731
7.50432,-0.108673,0.036224,-1.086731
7.51449,-0.108673,0.036224,-1.086731
7.52469,-0.108673,0.036224,-1.086731
7.53492,-0.108673,0.054337,-1.086731
7.54504,-0.108673,0.054337,-1.086731
7.55522,-0.108673,0.036224,-1.086731
7.56543,-0.108673,0.036224,-1.068619
7.57557,-0.108673,0.054337,-1.068619
7.58572,-0.108673,0.054337,-1.086731
7.59597,-0.108673,0.036224,-1.086731
7.60609,-0.108673,0.054337,-1.086731
7.61621,-0.108673,0.036224,-1.086731
7.62628,-0.108673,0.054337,-1.086731
7.63658,-0.126785,0.036224,-1.086731
7.64671,-0.108673,0.054337,-1.086731
7.65708,-0.108673,0.054337,-1.068619
7.66736,-0.126785,0.036224,-1.068619
7.67747,-0.126785,0.036224,-1.086731
7.6876,-0.108673,0.036224,-1.086731
7.69776,-0.126785,0.036224,-1.068619
7.70795,-0.108673,0.054337,-1.086731
7.71808,-0.108673,0.036224,-1.104843
7.72825,-0.126785,0.036224,-1.086731
7.7384,-0.108673,0.036224,-1.086731
7.74857,-0.108673,0.036224,-1.086731
7.75875,-0.108673,0.036224,-1.086731
7.76891,-0.108673,0.036224,-1.086731
7.77907,-0.126785,0.054337,-1.068619
7.78935,-0.108673,0.054337,-1.086731
7.79939,-0.126785,0.036224,-1.086731
7.80956,-0.126785,0.036224,-1.086731
7.81973,-0.108673,0.036224,-1.086731
7.82988,-0.108673,0.036224,-1.086731
7.84004,-0.126785,0.036224,-1.086731
7.8503,-0.126785,0.036224,-1.086731
7.86037,-0.108673,0.036224,-1.086731
7.87053,-0.126785,0.036224,-1.086731
7.88069,-0.108673,0.036224,-1.086731
7.8909,-0.126785,0.036224,-1.086731
7.90117,-0.108673,0.036224,-1.086731
7.91132,-0.108673,0.054337,-1.068619
7.9209,-0.126785,0.036224,-1.086731
7.93159,-0.126785,0.036224,-1.086731
7.94173,-0.108673,0.036224,-1.068619
7.952,-0.126785,0.036224,-1.086731
7.96137,-0.126785,0.036224,-1.068619
7.97208,-0.108673,0.054337,-1.086731
7.98222,-0.126785,0.036224,-1.086731
7.99247,-0.108673,0.036224,-1.068619
8.00283,-0.108673,0.036224,-1.086731
8.01216,-0.108673,0.036224,-1.086731
8.02309,-0.108673,0.054337,-1.068619
8.03315,-0.108673,0.054337,-1.086731
8.04334,-0.108673,0.054337,-1.068619
8.05354,-0.108673,0.054337,-1.086731
8.06367,-0.108673,0.054337,-1.086731
8.07383,-0.108673,0.036224,-1.068619
8.08399,-0.126785,0.036224,-1.086731
8.09414,-0.126785,0.054337,-1.086731
8.10429,-0.126785,0.054337,-1.086731
8.11447,-0.108673,0.036224,-1.086731
8.12463,-0.108673,0.036224,-1.086731
8.13483,-0.108673,0.054337,-1.086731
8.145,-0.108673,0.036224,-1.086731
8.15516,-0.126785,0.036224,-1.086731
8.16535,-0.108673,0.054337,-1.086731
8.17551,-0.108673,0.036224,-1.068619
8.18567,-0.126785,0.054337,-1.068619
8.19583,-0.126785,0.036224,-1.086731
8.20604,-0.108673,0.036224,-1.086731
8.21617,-0.126785,0.036224,-1.068619
8.22634,-0.108673,0.054337,-1.086731
8.23653,-0.108673,0.036224,-1.086731
8.24663,-0.108673,0.054337,-1.086731
8.25673,-0.108673,0.036224,-1.086731
8.26709,-0.126785,0.036224,-1.086731
8.27724,-0.126785,0.036224,-1.086731
8.2874,-0.126785,0.036224,-1.086731
8.29757,-0.126785,0.054337,-1.068619
8.30773,-0.126785,0.036224,-1.086731
8.31789,-0.126785,0.036224,-1.086731
8.32805,-0.108673,0.036224,-1.086731
8.33821,-0.108673,0.036224,-1.086731
8.34837,-0.108673,0.054337,-1.086731
8.35859,-0.108673,0.036224,-1.086731
8.36875,-0.108673,0.036224,-1.068619
8.3789,-0.108673,0.036224,-1.086731
8.38907,-0.108673,0.054337,-1.068619
8.39924,-0.126785,0.036224,-1.086731
8.40939,-0.108673,0.036224,-1.086731
8.41958,-0.108673,0.054337,-1.086731
8.42974,-0.126785,0.036224,-1.086731
8.43992,-0.108673,0.036224,-1.086731
8.45005,-0.108673,0.036224,-1.086731
8.46022,-0.108673,0.036224,-1.086731
8.47044,-0.090561,0.036224,-1.086731
8.4806,-0.090561,0.036224,-1.086731
8.49086,-0.126785,0.054337,-1.086731
8.50093,-0.126785,0.054337,-1.086731
8.51112,-0.126785,0.036224,-1.086731
8.52126,-0.108673,0.054337,-1.068619
8.5328,-0.126785,0.054337,-1.086731
8.54179,-0.126785,0.054337,-1.086731
8.5519,-0.126785,0.054337,-1.086731
8.56204,-0.108673,0.036224,-1.086731
8.57222,-0.108673,0.036224,-1.086731
8.58237,-0.108673,0.054337,-1.086731
8.59252,-0.126785,0.036224,-1.086731
8.6028,-0.108673,0.054337,-1.068619
8.61286,-0.108673,0.036224,-1.086731
8.62301,-0.108673,0.036224,-1.086731
8.63317,-0.108673,0.036224,-1.086731
8.64334,-0.108673,0.036224,-1.086731
8.6536,-0.126785,0.036224,-1.068619
8.66375,-0.108673,0.036224,-1.086731
8.67388,-0.108673,0.054337,-1.086731
8.68402,-0.126785,0.036224,-1.086731
8.69418,-0.126785,0.036224,-1.086731
8.7046,-0.108673,0.036224,-1.086731
8.7147,-0.108673,0.036224,-1.086731
8.72484,-0.126785,0.036224,-1.086731
8.735,-0.126785,0.036224,-1.086731
8.74514,-0.108673,0.054337,-1.086731
8.75524,-0.126785,0.036224,-1.086731
8.76545,-0.108673,0.036224,-1.086731
8.77561,-0.108673,0.036224,-1.086731
8.78581,-0.108673,0.036224,-1.086731
8.79591,-0.108673,0.036224,-1.086731
8.80611,-0.108673,0.036224,-1.068619
8.81624,-0.108673,0.054337,-1.068619
8.82642,-0.126785,0.036224,-1.086731
8.83658,-0.108673,0.054337,-1.068619
8.84668,-0.126785,0.036224,-1.086731
8.85707,-0.126785,0.036224,-1.068619
8.86722,-0.108673,0.054337,-1.086731
8.87741,-0.054337,0.036224,-1.086731
8.8876,-0.108673,-0.018112,-1.086731
8.89774,-0.144897,0.018112,-1.086731
8.90788,-0.144897,0.000000,-1.086731
8.91807,-0.108673,0.036224,-1.086731
8.92821,-0.108673,0.072449,-1.086731
8.93837,-0.108673,0.126785,-1.086731
8.94854,-0.126785,0.108673,-1.086731
8.95871,-0.090561,0.090561,-1.086731
8.96887,-0.018112,0.108673,-1.086731
8.97903,-0.054337,0.072449,-1.086731
8.98918,-0.126785,0.054337,-1.086731
8.99937,-0.090561,0.000000,-1.086731
9.00952,-0.072449,-0.018112,-1.086731
9.01975,-0.090561,0.000000,-1.086731
9.0299,-0.090561,0.036224,-1.104843
9.04005,-0.054337,0.036224,-1.104843
9.05023,-0.036224,0.054337,-1.122955
9.0604,-0.018112,0.054337,-1.141068
9.07055,-0.018112,0.000000,-1.122955
9.08071,0.000000,0.018112,-1.104843
9.091,0.036224,0.018112,-1.086731
9.10107,0.018112,0.018112,-1.050507
9.11123,0.036224,0.018112,-1.032394
9.12139,0.108673,0.072449,-1.104843
9.13155,0.072449,0.054337,-1.014282
9.14172,0.126785,0.090561,-0.996170
9.15188,0.126785,0.090561,-1.122955
9.16215,0.090561,0.072449,-1.068619
9.17231,0.144897,0.036224,-1.068619
9.18246,0.181122,0.090561,-1.050507
9.19267,0.199234,0.072449,-1.014282
9.20283,0.181122,0.054337,-0.959946
9.21301,0.181122,0.036224,-0.978058
9.22314,0.199234,0.072449,-0.978058
9.23331,0.253571,0.054337,-1.032394
9.24346,0.307907,0.036224,-1.032394
9.25365,0.326019,0.036224,-0.996170
9.26381,0.344131,-0.018112,-1.014282
9.27399,0.362244,0.000000,-0.978058
9.28413,0.344131,0.036224,-1.014282
9.2943,0.344131,0.054337,-1.014282
9.30447,0.362244,0.036224,-1.014282
9.31464,0.398468,0.036224,-1.014282
9.32485,0.398468,0.036224,-1.032394
9.33503,0.434692,0.018112,-1.014282
9.34518,0.507141,0.054337,-0.996170
9.35525,0.615814,0.054337,-0.923721
9.36564,0.615814,0.036224,-0.869385
9.37614,0.561478,0.072449,-0.815048
9.38596,0.543365,0.072449,-0.742599
9.39611,0.561478,0.054337,-0.742599
9.40635,0.543365,0.036224,-0.760712
9.41645,0.543365,0.000000,-0.796936
9.42657,0.543365,-0.018112,-0.833160
9.4367,0.561478,-0.018112,-0.833160
9.44706,0.633926,-0.018112,-0.778824
9.45732,0.670151,-0.018112,-0.724487
9.46741,0.670151,0.000000,-0.688263
9.47757,0.706375,0.018112,-0.670151
9.48807,0.724487,0.036224,-0.670151
9.49745,0.724487,0.054337,-0.670151
9.50743,0.724487,0.054337,-0.670151
9.51815,0.742599,0.054337,-0.633926
9.52836,0.742599,0.036224,-0.633926
9.53785,0.742599,0.018112,-0.652039
9.54857,0.724487,0.000000,-0.670151
9.55876,0.760712,-0.036224,-0.633926
9.56921,0.778824,-0.036224,-0.579590
9.57917,0.796936,-0.018112,-0.561478
9.5894,0.796936,0.000000,-0.561478
9.60026,0.796936,0.018112,-0.543365
9.60968,0.796936,0.036224,-0.543365
9.61984,0.796936,0.054337,-0.525253
9.63,0.796936,0.036224,-0.507141
9.64017,0.815048,-0.018112,-0.470917
9.65032,0.833160,0.018112,-0.470917
9.66049,0.833160,0.000000,-0.470917
9.67072,0.851273,0.018112,-0.452805
9.68131,0.851273,0.000000,-0.434692
9.69107,0.869385,-0.018112,-0.398468
9.70122,0.869385,-0.036224,-0.416580
9.71137,0.869385,-0.036224,-0.398468
9.7215,0.869385,-0.018112,-0.362244
9.7317,0.887497,0.000000,-0.362244
9.74185,0.887497,-0.018112,-0.344131
9.75214,0.869385,0.000000,-0.344131
9.76246,0.887497,0.036224,-0.326019
9.77261,0.869385,0.036224,-0.344131
9.78276,0.869385,0.018112,-0.362244
9.79304,0.905609,0.036224,-0.289795
9.8031,0.887497,0.036224,-0.307907
9.81325,0.887497,0.018112,-0.307907
9.82341,0.887497,0.018112,-0.289795
9.83359,0.869385,0.018112,-0.344131
9.84374,0.905609,0.018112,-0.235458
9.85389,0.905609,0.036224,-0.235458
9.86406,0.905609,0.036224,-0.199234
9.87424,0.923721,0.036224,-0.199234
9.88451,0.905609,0.036224,-0.199234
9.8947,0.905609,0.018112,-0.181122
9.90483,0.905609,0.018112,-0.163010
9.915,0.905609,0.036224,-0.126785
9.92516,0.905609,0.036224,-0.126785
9.93606,0.905609,0.036224,-0.108673
9.94507,0.905609,0.036224,-0.036224
9.9559,0.905609,0.036224,-0.054337
9.96563,0.923721,0.036224,0.000000
9.97615,0.923721,0.036224,0.036224
9.98583,0.923721,0.036224,0.054337
9.99569,0.905609,0.036224,0.036224
10.0066,0.923721,0.054337,0.018112
10.0165,0.905609,0.036224,-0.018112
10.0267,0.923721,0.036224,-0.018112
10.0369,0.923721,0.000000,-0.018112
10.0479,0.905609,0.018112,-0.036224
10.0575,0.923721,0.036224,-0.018112
10.0675,0.923721,0.018112,-0.018112
10.0777,0.923721,0.036224,-0.036224
10.0878,0.923721,0.018112,-0.036224
10.0979,0.905609,0.036224,-0.018112
10.1081,0.923721,0.036224,-0.036224
10.1182,0.923721,0.036224,-0.036224
10.1287,0.923721,0.036224,-0.036224
10.1386,0.905609,0.036224,-0.018112
10.1487,0.923721,0.036224,-0.018112
10.1589,0.923721,0.036224,-0.054337
10.1691,0.923721,0.036224,-0.072449
10.1786,0.923721,0.036224,-0.072449
10.1894,0.923721,0.036224,-0.054337
10.199,0.923721,0.036224,-0.054337
10.2094,0.923721,0.036224,-0.054337
10.2199,0.905609,0.036224,-0.054337
10.2299,0.941833,0.036224,-0.072449
10.2404,0.923721,0.036224,-0.054337
10.2505,0.923721,0.036224,-0.036224
10.2597,0.923721,0.036224,-0.054337
10.2705,0.905609,0.054337,-0.054337
10.2807,0.923721,0.036224,-0.054337
10.2908,0.923721,0.036224,-0.054337
10.301,0.905609,0.036224,-0.054337
10.3112,0.923721,0.018112,-0.036224
10.3212,0.905609,0.036224,-0.036224
10.3314,0.923721,0.036224,-0.054337
10.3416,0.923721,0.036224,-0.054337
10.3524,0.923721,-0.054337,-0.108673
10.362,0.923721,0.036224,-0.054337
10.3721,0.923721,0.072449,-0.018112
10.3823,0.923721,0.054337,-0.036224
10.3927,0.905609,0.036224,-0.072449
10.4028,0.923721,0.036224,-0.072449
10.413,0.923721,0.036224,-0.054337
10.4231,0.923721,0.036224,-0.054337
10.4331,0.905609,0.018112,-0.054337
10.4434,0.923721,0.036224,-0.054337
10.4537,0.905609,0.036224,-0.072449
10.4645,0.923721,0.018112,-0.072449
10.474,0.923721,0.036224,-0.054337
10.4835,0.923721,0.036224,-0.072449
10.4943,0.923721,0.036224,-0.054337
10.5044,0.923721,0.036224,-0.054337
10.5149,0.905609,0.036224,-0.072449
10.525,0.923721,0.036224,-0.072449
10.5353,0.923721,0.036224,-0.054337
10.5453,0.905609,0.054337,-0.072449
10.5555,0.905609,0.054337,-0.054337
10.5658,0.923721,0.036224,-0.054337
10.5766,0.905609,0.036224,-0.072449
10.5861,0.905609,0.018112,-0.072449
10.5962,0.923721,0.036224,-0.054337
10.6064,0.923721,0.036224,-0.072449
10.6167,0.887497,0.000000,-0.072449
10.6268,0.923721,0.036224,-0.054337
10.6371,0.923721,0.036224,-0.054337
10.6473,0.923721,0.018112,-0.054337
10.6572,0.923721,0.036224,-0.054337
10.6677,0.923721,0.036224,-0.054337
10.6778,0.923721,0.054337,-0.054337
10.688,0.923721,0.054337,-0.072449
10.6971,0.923721,0.036224,-0.072449
10.7076,0.923721,0.036224,-0.054337
10.7184,0.923721,0.036224,-0.072449
10.7286,0.923721,0.036224,-0.090561
10.7388,0.923721,0.036224,-0.072449
10.7491,0.923721,0.018112,-0.072449
10.7593,0.923721,0.018112,-0.054337
10.7693,0.905609,0.036224,-0.054337
10.7795,0.923721,0.036224,-0.054337
10.7896,0.923721,0.036224,-0.054337
10.8006,0.905609,0.036224,-0.054337
10.81,0.905609,0.036224,-0.054337
10.8201,0.905609,0.036224,-0.054337
10.8303,0.923721,0.036224,-0.072449
10.8405,0.923721,0.036224,-0.054337
10.8507,0.905609,0.036224,-0.072449
10.8609,0.923721,0.036224,-0.054337
10.8711,0.905609,0.036224,-0.054337
10.8811,0.923721,0.036224,-0.072449
10.8914,0.923721,0.036224,-0.054337
10.9016,0.905609,0.036224,-0.036224
10.9125,0.923721,0.018112,-0.054337
10.9219,0.923721,0.018112,-0.054337
10.9321,0.923721,0.036224,-0.054337
10.9423,0.905609,0.036224,-0.036224
10.9524,0.923721,0.036224,-0.054337
10.9626,0.923721,0.036224,-0.054337
10.9728,0.905609,0.036224,-0.054337
10.983,0.923721,0.036224,-0.054337
10.993,0.905609,0.036224,-0.054337
11.0033,0.923721,0.036224,-0.054337
11.0135,0.923721,0.018112,-0.072449
11.0244,0.923721,0.036224,-0.036224
11.034,0.905609,0.036224,-0.036224
11.044,0.923721,0.036224,-0.054337
11.0542,0.923721,0.036224,-0.036224
11.0644,0.923721,0.036224,-0.054337
11.0746,0.923721,0.036224,-0.072449
11.0848,0.923721,0.036224,-0.054337
11.0951,0.923721,0.036224,-0.036224
11.105,0.923721,0.036224,-0.036224
11.1153,0.923721,0.036224,-0.054337
11.1255,0.923721,0.036224,-0.036224
11.1363,0.923721,0.036224,-0.054337
11.1458,0.923721,0.036224,-0.036224
11.156,0.923721,0.036224,-0.054337
11.1661,0.905609,0.036224,-0.036224
11.1764,0.905609,0.036224,-0.054337
11.1866,0.923721,0.036224,-0.054337
11.1967,0.923721,0.036224,-0.054337
11.2068,0.923721,0.036224,-0.072449
11.217,0.905609,0.036224,-0.054337
11.2273,0.923721,0.036224,-0.054337
11.2375,0.905609,0.036224,-0.054337
11.2483,0.923721,0.018112,-0.054337
11.2578,0.923721,0.036224,-0.054337
11.2681,0.923721,0.036224,-0.036224
11.2781,0.923721,0.036224,-0.054337
11.2883,0.905609,0.018112,-0.054337
11.2986,0.923721,0.036224,-0.036224
11.3087,0.905609,0.018112,-0.054337
11.319,0.923721,0.036224,-0.036224
11.3288,0.923721,0.036224,-0.054337
11.3391,0.905609,0.036224,-0.036224
11.3493,0.905609,0.036224,-0.054337
11.3602,0.923721,0.036224,-0.054337
11.3698,0.905609,0.036224,-0.054337
11.3798,0.923721,0.036224,-0.036224
11.39,0.905609,0.036224,-0.054337
11.4003,0.923721,0.036224,-0.054337
11.4104,0.923721,0.036224,-0.054337
11.4212,0.923721,0.036224,-0.054337
11.4302,0.923721,0.036224,-0.054337
11.4408,0.923721,0.036224,-0.054337
11.4509,0.923721,0.036224,-0.054337
11.4611,0.923721,0.036224,-0.054337
11.4719,0.923721,0.036224,-0.054337
11.4814,0.923721,0.036224,-0.054337
11.4916,0.923721,0.036224,-0.054337
11.5018,0.905609,0.036224,-0.054337
11.5119,0.923721,0.036224,-0.054337
11.5221,0.923721,0.036224,-0.054337
11.5322,0.923721,0.036224,-0.036224
11.5424,0.905609,0.036224,-0.054337
11.5528,0.905609,0.036224,-0.036224
11.5627,0.905609,0.036224,-0.054337
11.5731,0.923721,0.036224,-0.054337
11.5839,0.923721,0.036224,-0.054337
11.5934,0.905609,0.036224,-0.054337
11.6036,0.923721,0.036224,-0.054337
11.6137,0.923721,0.036224,-0.054337
11.624,0.923721,0.018112,-0.054337
11.634,0.923721,0.018112,-0.054337
11.6441,0.923721,0.036224,-0.054337
11.6543,0.905609,0.036224,-0.054337
11.6647,0.923721,0.036224,-0.072449
11.6748,0.923721,0.036224,-0.072449
11.685,0.923721,0.036224,-0.054337
11.6957,0.923721,0.036224,-0.054337
11.7054,0.905609,0.036224,-0.036224
11.7155,0.923721,0.036224,-0.072449
11.7258,0.905609,0.018112,-0.054337
11.7359,0.923721,0.036224,-0.054337
11.7462,0.905609,0.036224,-0.054337
11.7563,0.923721,0.036224,-0.054337
11.7663,0.923721,0.036224,-0.054337
11.7766,0.923721,0.036224,-0.072449
11.7866,0.923721,0.036224,-0.054337
11.7968,0.923721,0.036224,-0.054337
11.8078,0.905609,0.018112,-0.054337
11.8173,0.905609,0.018112,-0.054337
11.8275,0.923721,0.036224,-0.054337
11.8376,0.923721,0.036224,-0.054337
11.8478,0.923721,0.018112,-0.054337
11.8573,0.923721,0.018112,-0.054337
11.8681,0.923721,0.036224,-0.054337
11.8783,0.923721,0.036224,-0.054337
11.8888,0.923721,0.036224,-0.054337
11.8986,0.923721,0.036224,-0.054337
11.9087,0.905609,0.036224,-0.054337
11.9196,0.923721,0.036224,-0.072449
11.9291,0.923721,0.036224,-0.054337
11.9392,0.905609,0.036224,-0.054337
11.9494,0.923721,0.036224,-0.072449
11.9596,0.923721,0.036224,-0.054337
11.9698,0.923721,0.036224,-0.054337
11.9798,0.923721,0.036224,-0.054337
11.99,0.923721,0.036224,-0.054337
12.0008,0.905609,0.036224,-0.036224
12.0099,0.923721,0.036224,-0.072449
12.0205,0.923721,0.036224,-0.054337
12.0315,0.923721,0.036224,-0.054337
12.0405,0.923721,0.036224,-0.054337
12.0511,0.923721,0.036224,-0.054337
12.0612,0.923721,0.036224,-0.054337
12.0714,0.905609,0.036224,-0.054337
12.0811,0.923721,0.036224,-0.072449
12.0916,0.923721,0.036224,-0.054337
12.1018,0.905609,0.036224,-0.054337
12.1121,0.923721,0.036224,-0.054337
12.1221,0.905609,0.036224,-0.054337
12.1323,0.905609,0.036224,-0.054337
12.1425,0.905609,0.036224,-0.054337
12.1526,0.923721,0.036224,-0.054337
12.1628,0.923721,0.036224,-0.072449
12.1729,0.923721,0.036224,-0.054337
12.1838,0.905609,0.018112,-0.054337
12.1936,0.923721,0.036224,-0.054337
12.2034,0.923721,0.036224,-0.054337
12.2136,0.923721,0.036224,-0.054337
12.224,0.923721,0.036224,-0.054337
12.2339,0.923721,0.036224,-0.054337
12.2441,0.923721,0.036224,-0.054337
12.2542,0.923721,0.036224,-0.054337
12.2646,0.905609,0.036224,-0.054337
12.2746,0.923721,0.036224,-0.072449
12.2849,0.923721,0.036224,-0.054337
12.295,0.905609,0.018112,-0.054337
12.305,0.905609,0.018112,-0.054337
12.3153,0.905609,0.036224,-0.054337
12.3255,0.923721,0.036224,-0.054337
12.3359,0.905609,0.036224,-0.054337
12.3459,0.923721,0.036224,-0.054337
12.3561,0.905609,0.036224,-0.054337
12.3662,0.905609,0.036224,-0.054337
12.3764,0.905609,0.018112,-0.054337
12.3866,0.923721,0.036224,-0.072449
12.3968,0.923721,0.036224,-0.054337
12.4068,0.923721,0.036224,-0.054337
12.4164,0.923721,0.036224,-0.054337
12.4271,0.905609,0.036224,-0.072449
12.4373,0.923721,0.036224,-0.054337
12.4478,0.923721,0.036224,-0.054337
12.4577,0.905609,0.036224,-0.036224
12.4678,0.905609,0.018112,-0.054337
12.478,0.923721,0.036224,-0.072449
12.4882,0.923721,0.036224,-0.072449
12.4984,0.923721,0.036224,-0.054337
12.5086,0.905609,0.018112,-0.054337
12.5187,0.905609,0.036224,-0.054337
12.5284,0.905609,0.036224,-0.054337
12.539,0.923721,0.036224,-0.054337
12.5491,0.905609,0.036224,-0.054337
12.5596,0.923721,0.036224,-0.072449
12.5695,0.923721,0.036224,-0.054337
12.5798,0.905609,0.036224,-0.054337
12.5898,0.905609,0.036224,-0.036224
12.6001,0.905609,0.036224,-0.054337
12.6102,0.905609,0.036224,-0.054337
12.6203,0.923721,0.036224,-0.072449
12.6306,0.923721,0.036224,-0.054337
12.6404,0.905609,0.018112,-0.072449
12.6506,0.923721,0.036224,-0.072449
12.6609,0.923721,0.036224,-0.054337
12.6716,0.923721,0.036224,-0.054337
12.6813,0.923721,0.036224,-0.054337
12.6913,0.905609,0.036224,-0.036224
12.7015,0.905609,0.036224,-0.054337
12.7116,0.905609,0.018112,-0.054337
12.722,0.923721,0.036224,-0.054337
12.732,0.923721,0.036224,-0.072449
12.7422,0.923721,0.036224,-0.054337
12.7524,0.923721,0.036224,-0.054337
12.7626,0.923721,0.036224,-0.036224
12.7728,0.905609,0.036224,-0.036224
12.7836,0.905609,0.036224,-0.054337
12.7931,0.923721,0.036224,-0.036224
12.8033,0.923721,0.036224,-0.054337
12.8134,0.923721,0.036224,-0.054337
12.8236,0.905609,0.036224,-0.072449
12.8338,0.923721,0.036224,-0.054337
12.844,0.923721,0.036224,-0.054337
12.8542,0.905609,0.036224,-0.054337
12.8642,0.923721,0.036224,-0.054337
12.8745,0.923721,0.036224,-0.036224
12.8848,0.905609,0.036224,-0.054337
12.8957,0.923721,0.036224,-0.054337
12.9051,0.923721,0.036224,-0.054337
12.9153,0.923721,0.036224,-0.036224
12.9255,0.905609,0.036224,-0.054337
12.9357,0.923721,0.036224,-0.054337
12.946,0.923721,0.036224,-0.054337
12.956,0.905609,0.036224,-0.072449
12.9661,0.923721,0.036224,-0.054337
12.9761,0.905609,0.036224,-0.054337
12.9865,0.905609,0.018112,-0.054337
12.9966,0.905609,0.036224,-0.054337
13.0074,0.923721,0.036224,-0.054337
13.0171,0.923721,0.036224,-0.054337
13.0273,0.923721,0.036224,-0.054337
13.0375,0.923721,0.036224,-0.054337
13.0476,0.923721,0.036224,-0.054337
13.0579,0.923721,0.036224,-0.054337
13.068,0.923721,0.036224,-0.054337
13.0782,0.923721,0.036224,-0.054337
13.0882,0.923721,0.036224,-0.054337
13.0985,0.923721,0.036224,-0.054337
13.1086,0.905609,0.036224,-0.036224
13.1194,0.923721,0.036224,-0.072449
13.129,0.905609,0.036224,-0.072449
13.1391,0.923721,0.036224,-0.072449
13.1493,0.923721,0.036224,-0.054337
13.1595,0.923721,0.036224,-0.054337
13.1697,0.905609,0.018112,-0.054337
13.1799,0.923721,0.036224,-0.054337
13.1901,0.923721,0.036224,-0.054337
13.2002,0.905609,0.036224,-0.054337
13.2104,0.905609,0.036224,-0.054337
13.2206,0.905609,0.036224,-0.072449
13.2314,0.923721,0.036224,-0.072449
13.241,0.905609,0.036224,-0.072449
13.2511,0.923721,0.036224,-0.054337
13.2613,0.923721,0.036224,-0.054337
13.2715,0.923721,0.036224,-0.036224
13.2818,0.905609,0.036224,-0.054337
13.2919,0.923721,0.036224,-0.054337
13.3021,0.923721,0.036224,-0.054337
13.3121,0.923721,0.036224,-0.054337
13.3223,0.905609,0.018112,-0.054337
13.3326,0.923721,0.018112,-0.054337
13.3434,0.905609,0.036224,-0.054337
13.3528,0.905609,0.036224,-0.054337
13.3631,0.923721,0.018112,-0.072449
13.3732,0.923721,0.036224,-0.054337
13.3835,0.923721,0.036224,-0.054337
13.3936,0.923721,0.036224,-0.054337
13.4038,0.905609,0.036224,-0.054337
13.414,0.923721,0.036224,-0.054337
13.424,0.905609,0.036224,-0.054337
13.4345,0.905609,0.018112,-0.054337
13.4447,0.905609,0.036224,-0.054337
13.4552,0.905609,0.036224,-0.054337
13.4651,0.905609,0.018112,-0.054337
13.4753,0.923721,0.036224,-0.054337
13.4854,0.923721,0.036224,-0.054337
13.4956,0.923721,0.036224,-0.054337
13.5051,0.923721,0.036224,-0.054337
13.5159,0.905609,0.036224,-0.054337
13.5261,0.923721,0.036224,-0.072449
13.5362,0.923721,0.036224,-0.054337
13.5464,0.905609,0.036224,-0.054337
13.5566,0.923721,0.036224,-0.054337
13.5674,0.923721,0.036224,-0.054337
13.5768,0.923721,0.036224,-0.054337
13.5871,0.923721,0.036224,-0.054337
13.5973,0.923721,0.036224,-0.054337
13.6075,0.923721,0.036224,-0.054337
13.6176,0.923721,0.018112,-0.054337
13.6278,0.923721,0.036224,-0.054337
13.638,0.923721,0.036224,-0.072449
13.648,0.923721,0.036224,-0.054337
13.6583,0.923721,0.036224,-0.054337
13.6685,0.923721,0.036224,-0.054337
13.6793,0.923721,0.036224,-0.054337
13.6887,0.923721,0.036224,-0.054337
13.6991,0.923721,0.036224,-0.054337
13.7092,0.923721,0.036224,-0.054337
13.7193,0.923721,0.036224,-0.036224
13.7296,0.905609,0.036224,-0.054337
13.7398,0.905609,0.036224,-0.054337
13.7499,0.923721,0.036224,-0.054337
13.76,0.905609,0.036224,-0.054337
13.7703,0.923721,0.036224,-0.054337
13.7804,0.905609,0.036224,-0.072449
13.7913,0.923721,0.036224,-0.054337
13.8009,0.905609,0.036224,-0.072449
13.8109,0.923721,0.036224,-0.054337
13.8211,0.923721,0.036224,-0.054337
13.8313,0.923721,0.036224,-0.054337
13.8415,0.923721,0.036224,-0.054337
13.8516,0.905609,0.018112,-0.054337
13.8618,0.923721,0.036224,-0.054337
13.8719,0.923721,0.036224,-0.054337
13.8821,0.923721,0.036224,-0.054337
13.8923,0.905609,0.036224,-0.054337
13.9032,0.905609,0.036224,-0.054337
13.9127,0.905609,0.036224,-0.054337
13.9228,0.923721,0.036224,-0.054337
13.933,0.905609,0.018112,-0.054337
13.9432,0.923721,0.036224,-0.054337
13.9534,0.905609,0.036224,-0.054337
13.9636,0.905609,0.018112,-0.072449
13.9738,0.905609,0.036224,-0.054337
13.9839,0.923721,0.036224,-0.054337
13.9935,0.923721,0.036224,-0.054337
14.0043,0.923721,0.036224,-0.054337
14.0139,0.905609,0.036224,-0.054337
14.024,0.905609,0.036224,-0.054337
14.0353,0.905609,0.036224,-0.054337
14.0452,0.923721,0.036224,-0.072449
14.0554,0.923721,0.036224,-0.054337
14.0656,0.923721,0.018112,-0.054337
14.0757,0.905609,0.036224,-0.054337
14.086,0.923721,0.036224,-0.054337
14.0958,0.923721,0.036224,-0.054337
14.1062,0.923721,0.036224,-0.054337
14.116,0.923721,0.036224,-0.054337
14.1271,0.905609,0.018112,-0.054337
14.1366,0.923721,0.018112,-0.072449
14.1467,0.923721,0.036224,-0.054337
14.1568,0.923721,0.036224,-0.054337
14.1671,0.923721,0.036224,-0.054337
14.1773,0.905609,0.036224,-0.054337
14.1875,0.923721,0.036224,-0.054337
14.1977,0.923721,0.036224,-0.072449
14.2077,0.923721,0.036224,-0.072449
14.218,0.905609,0.036224,-0.072449
14.2281,0.923721,0.036224,-0.072449
14.239,0.923721,0.036224,-0.054337
14.2485,0.905609,0.036224,-0.054337
14.2587,0.923721,0.036224,-0.036224
14.2688,0.923721,0.036224,-0.054337
14.279,0.923721,0.036224,-0.054337
14.2893,0.923721,0.036224,-0.072449
14.2995,0.905609,0.018112,-0.072449
14.3096,0.905609,0.036224,-0.054337
14.3196,0.923721,0.036224,-0.054337
14.3299,0.923721,0.036224,-0.054337
14.3401,0.923721,0.036224,-0.054337
14.3509,0.923721,0.036224,-0.054337
14.3605,0.923721,0.036224,-0.072449
14.3706,0.923721,0.018112,-0.072449
14.3808,0.923721,0.036224,-0.054337
14.391,0.905609,0.036224,-0.054337
14.4015,0.905609,0.036224,-0.054337
14.4117,0.905609,0.036224,-0.054337
14.4217,0.923721,0.036224,-0.072449
14.4317,0.905609,0.036224,-0.054337
14.442,0.923721,0.018112,-0.054337
14.4522,0.905609,0.036224,-0.054337
14.463,0.905609,0.036224,-0.054337
14.4725,0.905609,0.018112,-0.054337
14.4827,0.923721,0.036224,-0.054337
14.4928,0.923721,0.036224,-0.054337
14.503,0.923721,0.036224,-0.054337
14.5132,0.923721,0.036224,-0.054337
14.5234,0.923721,0.036224,-0.054337
14.5336,0.923721,0.018112,-0.054337
14.5436,0.905609,0.036224,-0.072449
14.5539,0.923721,0.036224,-0.072449
14.5641,0.923721,0.036224,-0.054337
14.575,0.923721,0.036224,-0.072449
14.5845,0.923721,0.036224,-0.054337
14.5946,0.923721,0.018112,-0.054337
14.6048,0.905609,0.036224,-0.054337
14.615,0.923721,0.018112,-0.072449
14.6252,0.923721,0.036224,-0.072449
14.6354,0.923721,0.036224,-0.054337
14.6456,0.941833,0.036224,-0.054337
14.6556,0.905609,0.036224,-0.054337
14.666,0.923721,0.036224,-0.054337
14.6761,0.923721,0.036224,-0.054337
14.6869,0.905609,0.018112,-0.054337
14.6966,0.905609,0.036224,-0.054337
14.7068,0.923721,0.054337,-0.054337
14.7169,0.905609,0.036224,-0.054337
14.7272,0.923721,0.018112,-0.054337
14.7374,0.905609,0.036224,-0.054337
14.7475,0.905609,0.036224,-0.054337
14.7577,0.923721,0.018112,-0.054337
14.7676,0.905609,0.036224,-0.072449
14.7781,0.923721,0.036224,-0.054337
14.7884,0.923721,0.036224,-0.054337
14.7988,0.923721,0.018112,-0.072449
14.8087,0.923721,0.036224,-0.054337
14.8188,0.923721,0.036224,-0.054337
14.829,0.923721,0.036224,-0.054337
14.8392,0.923721,0.036224,-0.072449
14.8493,0.923721,0.036224,-0.072449
14.8595,0.923721,0.036224,-0.054337
14.8697,0.905609,0.036224,-0.054337
14.8795,0.923721,0.036224,-0.072449
14.8899,0.923721,0.036224,-0.054337
14.9001,0.923721,0.018112,-0.054337
14.911,0.923721,0.036224,-0.054337
14.9204,0.905609,0.036224,-0.054337
14.9306,0.923721,0.036224,-0.072449
14.9408,0.923721,0.036224,-0.054337
14.9509,0.923721,0.036224,-0.054337
14.9611,0.923721,0.036224,-0.072449
14.9713,0.923721,0.036224,-0.054337
14.9815,0.923721,0.036224,-0.054337
14.9914,0.923721,0.018112,-0.054337
15.0019,0.905609,0.036224,-0.054337
15.0119,0.923721,0.036224,-0.072449
15.0227,0.905609,0.018112,-0.054337
15.0322,0.905609,0.036224,-0.072449
15.0424,0.905609,0.018112,-0.054337
15.0526,0.923721,0.036224,-0.054337
15.0628,0.923721,0.036224,-0.072449
15.073,0.905609,0.036224,-0.054337
15.0832,0.923721,0.036224,-0.072449
15.0933,0.923721,0.018112,-0.054337
15.1033,0.905609,0.036224,-0.054337
15.1136,0.923721,0.036224,-0.054337
15.1238,0.923721,0.036224,-0.054337
15.1346,0.923721,0.036224,-0.054337
15.1441,0.905609,0.036224,-0.054337
15.1543,0.923721,0.036224,-0.072449
15.1645,0.923721,0.036224,-0.072449
15.1747,0.923721,0.036224,-0.054337
15.1849,0.923721,0.036224,-0.054337
15.1951,0.923721,0.036224,-0.054337
15.2053,0.923721,0.036224,-0.054337
15.2153,0.905609,0.036224,-0.036224
15.2257,0.923721,0.036224,-0.072449
15.2358,0.923721,0.036224,-0.072449
15.2467,0.923721,0.036224,-0.072449
15.2562,0.923721,0.018112,-0.054337
15.2663,0.923721,0.036224,-0.054337
15.2765,0.923721,0.036224,-0.054337
15.2867,0.923721,0.036224,-0.054337
15.2968,0.905609,0.036224,-0.054337
15.3071,0.923721,0.036224,-0.054337
15.3173,0.923721,0.054337,-0.072449
15.3272,0.923721,0.036224,-0.054337
15.3375,0.923721,0.036224,-0.054337
15.3477,0.905609,0.036224,-0.054337
15.3586,0.905609,0.036224,-0.054337
15.3681,0.905609,0.036224,-0.072449
15.3782,0.905609,0.036224,-0.054337
15.3884,0.905609,0.036224,-0.054337
15.3985,0.905609,0.036224,-0.054337
15.4088,0.923721,0.036224,-0.054337
15.419,0.923721,0.036224,-0.072449
15.4292,0.923721,0.036224,-0.072449
15.4393,0.923721,0.036224,-0.054337
15.4495,0.923721,0.036224,-0.054337
15.4597,0.905609,0.018112,-0.072449
15.4705,0.923721,0.018112,-0.072449
15.48,0.923721,0.036224,-0.054337
15.4903,0.923721,0.036224,-0.054337
15.5003,0.905609,0.036224,-0.072449
15.5105,0.923721,0.036224,-0.054337
15.5207,0.923721,0.036224,-0.054337
15.5309,0.923721,0.036224,-0.072449
15.5412,0.923721,0.036224,-0.072449
15.5511,0.905609,0.036224,-0.072449
15.5614,0.923721,0.036224,-0.072449
15.5716,0.923721,0.036224,-0.054337
15.5825,0.923721,0.036224,-0.054337
15.5919,0.923721,0.036224,-0.054337
15.6022,0.923721,0.036224,-0.054337
15.6122,0.923721,0.036224,-0.072449
15.6223,0.905609,0.036224,-0.054337
15.6327,0.905609,0.036224,-0.054337
15.6428,0.905609,0.036224,-0.054337
15.653,0.923721,0.018112,-0.072449
15.6631,0.923721,0.036224,-0.054337
15.6733,0.923721,0.036224,-0.054337
15.6835,0.923721,0.018112,-0.072449
15.6944,0.923721,0.036224,-0.072449
15.704,0.923721,0.036224,-0.072449
15.714,0.923721,0.036224,-0.072449
15.7242,0.923721,0.036224,-0.054337
15.7342,0.923721,0.036224,-0.072449
15.7449,0.923721,0.036224,-0.072449
15.7549,0.923721,0.036224,-0.054337
15.7651,0.905609,0.036224,-0.072449
15.7751,0.923721,0.036224,-0.072449
15.7854,0.923721,0.018112,-0.072449
15.7956,0.923721,0.036224,-0.054337
15.8064,0.923721,0.036224,-0.054337
15.8159,0.923721,0.018112,-0.072449
15.8261,0.923721,0.018112,-0.072449
15.8362,0.923721,0.036224,-0.072449
15.8464,0.923721,0.036224,-0.072449
15.8566,0.923721,0.036224,-0.054337
15.8667,0.905609,0.036224,-0.054337
15.8771,0.923721,0.036224,-0.054337
15.887,0.923721,0.036224,-0.054337
15.8974,0.923721,0.036224,-0.072449
15.9076,0.923721,0.036224,-0.072449
15.9184,0.923721,0.036224,-0.072449
15.9279,0.905609,0.018112,-0.054337
15.9381,0.905609,0.036224,-0.054337
15.9482,0.923721,0.036224,-0.072449
15.9584,0.923721,0.018112,-0.072449
15.9686,0.923721,0.018112,-0.072449
15.9787,0.905609,0.018112,-0.072449
15.9889,0.905609,0.018112,-0.072449
15.9992,0.905609,0.036224,-0.054337
16.0088,0.905609,0.036224,-0.072449
16.0195,0.905609,0.018112,-0.072449
16.0304,0.923721,0.036224,-0.072449
16.0396,0.923721,0.036224,-0.054337
16.05,0.905609,0.036224,-0.072449
16.0601,0.905609,0.036224,-0.054337
16.0703,0.905609,0.036224,-0.054337
16.0806,0.923721,0.036224,-0.072449
16.0907,0.923721,0.036224,-0.072449
16.1009,0.923721,0.036224,-0.072449
16.1109,0.923721,0.036224,-0.072449
16.1212,0.923721,0.036224,-0.072449
16.1314,0.905609,0.036224,-0.054337
16.1423,0.923721,0.036224,-0.072449
16.1517,0.923721,0.036224,-0.054337
16.1618,0.905609,0.036224,-0.054337
16.172,0.905609,0.036224,-0.072449
16.1821,0.905609,0.036224,-0.054337
16.1926,0.923721,0.036224,-0.054337
16.2028,0.923721,0.036224,-0.054337
16.2128,0.923721,0.036224,-0.072449
16.2228,0.923721,0.036224,-0.054337
16.2331,0.923721,0.036224,-0.072449
16.2434,0.923721,0.036224,-0.054337
16.2543,0.923721,0.036224,-0.072449
16.2637,0.923721,0.036224,-0.072449
16.2738,0.905609,0.036224,-0.072449
16.284,0.923721,0.036224,-0.072449
16.2943,0.923721,0.036224,-0.054337
16.3045,0.905609,0.036224,-0.072449
16.3146,0.923721,0.036224,-0.054337
16.3248,0.923721,0.036224,-0.054337
16.3348,0.923721,0.036224,-0.054337
16.3453,0.905609,0.036224,-0.072449
16.3554,0.905609,0.036224,-0.054337
16.366,0.923721,0.036224,-0.054337
16.3759,0.923721,0.036224,-0.072449
16.3861,0.923721,0.036224,-0.054337
16.3962,0.905609,0.036224,-0.054337
16.4064,0.905609,0.018112,-0.072449
16.416,0.923721,0.036224,-0.072449
16.4271,0.905609,0.018112,-0.072449
16.4373,0.923721,0.036224,-0.072449
16.4473,0.905609,0.036224,-0.054337
16.4577,0.923721,0.036224,-0.072449
16.4678,0.923721,0.036224,-0.054337
16.4783,0.923721,0.036224,-0.054337
16.4882,0.923721,0.036224,-0.072449
16.4983,0.923721,0.036224,-0.054337
16.5085,0.905609,0.018112,-0.054337
16.5187,0.923721,0.036224,-0.072449
16.5288,0.905609,0.036224,-0.072449
16.539,0.923721,0.036224,-0.072449
16.5492,0.923721,0.036224,-0.072449
16.5588,0.923721,0.036224,-0.072449
16.5696,0.923721,0.036224,-0.072449
16.5798,0.923721,0.036224,-0.054337
16.5902,0.905609,0.018112,-0.072449
16.6001,0.923721,0.018112,-0.072449
16.6103,0.923721,0.036224,-0.054337
16.6204,0.923721,0.036224,-0.054337
16.6306,0.905609,0.018112,-0.054337
16.6408,0.905609,0.018112,-0.054337
16.6509,0.905609,0.036224,-0.054337
16.6612,0.905609,0.018112,-0.054337
16.6709,0.923721,0.036224,-0.072449
16.6815,0.905609,0.036224,-0.054337
16.6917,0.905609,0.036224,-0.072449
16.7022,0.905609,0.036224,-0.072449
16.7121,0.923721,0.036224,-0.072449
16.7223,0.905609,0.036224,-0.072449
16.7324,0.923721,0.036224,-0.054337
16.7426,0.905609,0.036224,-0.054337
16.7528,0.905609,0.036224,-0.072449
16.7629,0.923721,0.036224,-0.072449
16.7731,0.923721,0.036224,-0.072449
16.7827,0.923721,0.036224,-0.072449
16.7933,0.923721,0.036224,-0.072449
16.8037,0.923721,-0.036224,-0.072449
16.814,0.923721,0.036224,-0.054337
16.8239,0.905609,0.054337,-0.090561
16.834,0.923721,0.036224,-0.090561
16.8442,0.923721,0.036224,-0.072449
16.8543,0.923721,0.036224,-0.072449
16.8645,0.923721,0.036224,-0.072449
16.8747,0.923721,0.036224,-0.072449
16.8851,0.905609,0.036224,-0.072449
16.8949,0.923721,0.018112,-0.054337
16.9053,0.923721,0.036224,-0.072449
16.9154,0.905609,0.036224,-0.072449
16.9258,0.905609,0.036224,-0.054337
16.9357,0.923721,0.036224,-0.072449
16.9459,0.923721,0.036224,-0.072449
16.9561,0.923721,0.036224,-0.072449
16.9662,0.923721,0.036224,-0.072449
16.9764,0.923721,0.036224,-0.054337
16.9866,0.923721,0.036224,-0.072449
16.9967,0.923721,0.036224,-0.072449
17.0067,0.923721,0.036224,-0.072449
17.0172,0.923721,0.036224,-0.072449
17.0273,0.923721,0.036224,-0.054337
17.0382,0.905609,0.036224,-0.054337
17.0477,0.905609,0.018112,-0.072449
17.0578,0.923721,0.018112,-0.072449
17.068,0.905609,0.036224,-0.054337
17.0782,0.905609,0.036224,-0.054337
17.0883,0.923721,0.036224,-0.054337
17.0986,0.905609,0.018112,-0.054337
17.1087,0.923721,0.036224,-0.072449
17.1186,0.905609,0.036224,-0.054337
17.1289,0.905609,0.036224,-0.054337
17.139,0.905609,0.036224,-0.072449
17.15,0.923721,0.036224,-0.072449
17.1594,0.923721,0.036224,-0.054337
17.1696,0.905609,0.018112,-0.072449
17.1797,0.905609,0.018112,-0.072449
17.1899,0.923721,0.054337,-0.054337
17.1998,0.923721,0.036224,-0.054337
17.2106,0.923721,0.036224,-0.054337
17.2204,0.923721,0.036224,-0.072449
17.2308,0.905609,0.036224,-0.054337
17.2407,0.923721,0.036224,-0.072449
17.2508,0.923721,0.036224,-0.054337
17.2617,0.905609,0.036224,-0.072449
17.2712,0.923721,0.036224,-0.072449
17.2814,0.905609,0.036224,-0.054337
17.2915,0.923721,0.036224,-0.072449
17.3017,0.923721,0.036224,-0.072449
17.3121,0.905609,0.018112,-0.072449
17.3223,0.923721,0.036224,-0.072449
17.3325,0.905609,0.036224,-0.054337
17.3425,0.905609,0.036224,-0.054337
17.3528,0.923721,0.036224,-0.054337
17.363,0.923721,0.054337,-0.054337
17.3739,0.923721,0.036224,-0.072449
17.3834,0.923721,0.018112,-0.072449
17.3935,0.923721,0.036224,-0.054337
17.4038,0.923721,0.036224,-0.054337
17.4139,0.905609,0.036224,-0.054337
17.4241,0.905609,0.036224,-0.054337
17.4343,0.923721,0.036224,-0.072449
17.4445,0.923721,0.018112,-0.054337
17.4545,0.923721,0.036224,-0.072449
17.4649,0.923721,0.036224,-0.072449
17.475,0.923721,0.018112,-0.072449
17.4859,0.923721,0.036224,-0.054337
17.4954,0.923721,0.036224,-0.054337
17.5057,0.923721,0.036224,-0.072449
17.5157,0.923721,0.018112,-0.072449
17.5259,0.905609,0.036224,-0.072449
17.5362,0.905609,0.036224,-0.072449
17.5463,0.923721,0.036224,-0.072449
17.5566,0.923721,0.036224,-0.072449
17.5665,0.923721,0.036224,-0.072449
17.5767,0.923721,0.036224,-0.072449
17.5871,0.923721,0.036224,-0.054337
17.5976,0.923721,0.018112,-0.072449
17.6076,0.923721,0.036224,-0.072449
17.6177,0.923721,0.036224,-0.054337
17.6278,0.923721,0.036224,-0.054337
17.638,0.923721,0.036224,-0.054337
17.6481,0.923721,0.036224,-0.072449
17.6583,0.923721,0.036224,-0.072449
17.6686,0.905609,0.018112,-0.072449
17.6785,0.923721,0.036224,-0.072449
17.6887,0.923721,0.036224,-0.072449
17.6989,0.905609,0.036224,-0.072449
17.7098,0.905609,0.036224,-0.054337
17.7193,0.905609,0.036224,-0.054337
17.7294,0.923721,0.018112,-0.072449
17.7396,0.923721,0.036224,-0.072449
17.7498,0.923721,0.036224,-0.072449
17.7601,0.923721,0.036224,-0.072449
17.7702,0.923721,0.036224,-0.072449
17.7804,0.923721,0.036224,-0.054337
17.7904,0.905609,0.036224,-0.054337
17.8007,0.905609,0.036224,-0.072449
17.8108,0.923721,0.036224,-0.054337
17.8217,0.923721,0.036224,-0.072449
17.8312,0.923721,0.036224,-0.072449
17.8413,0.923721,0.036224,-0.072449
17.8515,0.923721,0.036224,-0.072449
17.8617,0.923721,0.036224,-0.072449
17.8719,0.923721,0.036224,-0.072449
17.8822,0.905609,0.036224,-0.072449
17.8923,0.923721,0.036224,-0.072449
17.9022,0.923721,0.036224,-0.072449
17.9125,0.905609,0.036224,-0.072449
17.9227,0.923721,0.036224,-0.072449
17.9335,0.923721,0.036224,-0.054337
17.9426,0.923721,0.036224,-0.072449
17.9522,0.941833,0.036224,-0.072449
17.9623,0.923721,0.036224,-0.054337
17.9734,0.923721,0.036224,-0.036224
17.9828,0.923721,0.108673,0.000000
17.9927,0.905609,0.144897,0.072449
18.004,0.869385,0.108673,0.108673
18.0134,0.887497,0.054337,0.108673
18.0237,0.905609,0.018112,0.090561
18.0343,0.905609,0.000000,0.036224
18.0444,0.905609,0.018112,0.054337
18.0546,0.905609,0.018112,0.090561
18.0647,0.869385,0.054337,0.090561
18.0749,0.923721,0.018112,0.054337
18.0851,0.923721,0.000000,0.072449
18.0952,0.905609,0.000000,0.090561
18.1054,0.905609,-0.018112,0.108673
18.1156,0.887497,-0.036224,0.144897
18.1257,0.887497,-0.018112,0.163010
18.1359,0.869385,0.018112,0.163010
18.1461,0.869385,0.036224,0.181122
18.1562,0.851273,0.036224,0.199234
18.1664,0.851273,0.036224,0.235458
18.1766,0.851273,0.054337,0.271683
18.1867,0.815048,0.072449,0.307907
18.1971,0.815048,0.072449,0.326019
18.2074,0.796936,0.054337,0.326019
18.2174,0.778824,0.054337,0.307907
18.2276,0.778824,0.054337,0.307907
18.2377,0.760712,0.054337,0.271683
18.2479,0.742599,0.054337,0.289795
18.2582,0.706375,0.036224,0.271683
18.2682,0.633926,0.054337,0.253571
18.2784,0.525253,0.072449,0.525253
18.2886,0.470917,0.144897,1.050507
18.2987,0.362244,0.000000,0.742599
18.309,0.452805,-0.144897,1.285965
18.3191,0.398468,-0.054337,1.231628
18.3292,0.289795,0.054337,0.941833
18.3394,0.380356,0.036224,0.760712
18.3495,0.416580,0.090561,0.724487
18.3598,0.398468,0.108673,0.760712
18.3699,0.380356,0.126785,0.760712
18.3801,0.362244,0.072449,0.760712
18.3902,0.362244,0.072449,0.778824
18.4004,0.362244,0.036224,0.815048
18.4105,0.344131,0.036224,0.815048
18.4207,0.307907,0.018112,0.851273
18.4306,0.289795,0.018112,0.833160
18.4411,0.289795,0.036224,0.887497
18.4512,0.271683,0.072449,0.905609
18.4617,0.289795,0.054337,0.905609
18.4717,0.271683,0.054337,0.869385
18.4818,0.307907,0.036224,0.851273
18.4919,0.271683,0.054337,0.869385
18.5021,0.253571,0.072449,0.851273
18.5116,0.271683,0.054337,0.851273
18.5224,0.271683,0.054337,0.851273
18.5326,0.253571,0.072449,0.851273
18.5423,0.253571,0.072449,0.869385
18.5529,0.271683,0.054337,0.833160
18.5631,0.271683,0.036224,0.851273
18.5736,0.253571,0.036224,0.869385
18.5834,0.271683,0.000000,0.833160
18.5934,0.271683,0.000000,0.833160
18.6037,0.271683,-0.018112,0.815048
18.6139,0.271683,0.000000,0.851273
18.624,0.253571,0.036224,0.887497
18.6342,0.217346,0.054337,0.905609
18.6444,0.235458,0.054337,0.851273
18.6545,0.235458,0.054337,0.851273
18.6647,0.253571,0.036224,0.851273
18.6749,0.253571,0.036224,0.833160
18.6851,0.253571,0.054337,0.851273
18.6953,0.253571,0.036224,0.833160
18.7055,0.253571,0.054337,0.851273
18.7157,0.235458,0.054337,0.833160
18.7259,0.235458,0.036224,0.833160
18.736,0.235458,0.036224,0.851273
18.7461,0.235458,0.036224,0.869385
18.7563,0.235458,0.036224,0.887497
18.7665,0.199234,0.036224,0.887497
18.7766,0.181122,0.036224,0.887497
18.7867,0.199234,-0.018112,0.887497
18.7971,0.199234,0.018112,0.869385
18.8073,0.199234,0.036224,0.869385
18.8174,0.199234,0.054337,0.869385
18.8276,0.199234,0.036224,0.851273
18.8377,0.253571,0.054337,0.833160
18.8479,0.253571,0.054337,0.851273
18.858,0.253571,0.090561,0.851273
18.8682,0.217346,0.054337,0.851273
18.8784,0.217346,0.036224,0.833160
18.8885,0.181122,0.054337,0.851273
18.8987,0.144897,0.054337,0.869385
18.9089,0.163010,0.054337,0.869385
18.9191,0.181122,0.054337,0.887497
18.9292,0.144897,0.072449,0.887497
18.9394,0.108673,0.072449,0.887497
18.9496,0.108673,0.072449,0.887497
18.9598,0.090561,0.054337,0.887497
18.97,0.090561,0.054337,0.905609
18.9801,0.108673,0.036224,0.905609
18.9903,0.126785,0.036224,0.869385
19.0004,0.108673,0.054337,0.905609
19.0107,0.108673,0.054337,0.905609
19.0208,0.090561,0.054337,0.905609
19.0309,0.090561,0.054337,0.887497
19.0411,0.126785,0.036224,0.869385
19.0512,0.090561,0.054337,0.905609
19.0615,0.090561,0.054337,0.905609
19.0716,0.090561,0.036224,0.923721
19.0817,0.072449,0.054337,0.923721
19.0919,0.072449,0.036224,0.923721
19.102,0.072449,0.036224,0.923721
19.1123,0.054337,0.036224,0.923721
19.1224,0.054337,0.054337,0.905609
19.1325,0.054337,0.054337,0.905609
19.1427,0.054337,0.054337,0.905609
19.1529,0.036224,0.036224,0.887497
19.1629,0.054337,0.054337,0.905609
19.1731,0.036224,0.054337,0.905609
19.1833,0.000000,0.054337,0.887497
19.1934,0.000000,0.036224,0.905609
19.2036,0.108673,0.036224,0.796936
19.2138,0.072449,0.018112,0.652039
19.2239,0.054337,0.036224,0.615814
19.2341,0.072449,0.072449,0.597702
19.2442,-0.036224,0.144897,1.285965
19.2546,-0.235458,0.108673,0.905609
19.2646,-0.271683,0.036224,0.869385
19.2748,-0.181122,-0.018112,0.941833
19.285,-0.090561,0.054337,0.923721
19.2951,-0.090561,0.054337,0.905609
19.3053,-0.090561,0.054337,0.923721
19.3155,-0.090561,0.054337,0.905609
19.3256,-0.072449,0.072449,0.905609
19.3358,-0.072449,0.072449,0.923721
19.346,-0.072449,0.072449,0.923721
19.3562,-0.090561,0.072449,0.905609
19.3663,-0.090561,0.072449,0.923721
19.3765,-0.072449,0.072449,0.905609
19.3866,-0.090561,0.054337,0.905609
19.3967,-0.126785,0.018112,0.923721
19.4068,-0.144897,0.054337,0.923721
19.4171,-0.108673,0.054337,0.905609
19.4272,-0.108673,0.054337,0.923721
19.4374,-0.108673,0.054337,0.923721
19.4476,-0.090561,0.054337,0.923721
19.4577,-0.108673,0.054337,0.923721
19.4679,-0.090561,0.054337,0.905609
19.478,-0.108673,0.054337,0.923721
19.4882,-0.090561,0.054337,0.905609
19.4984,-0.090561,0.072449,0.905609
19.5086,-0.090561,0.054337,0.905609
19.5187,-0.090561,0.054337,0.923721
19.5289,-0.090561,0.054337,0.923721
19.539,-0.090561,0.054337,0.905609
19.5492,-0.090561,0.054337,0.923721
19.5594,-0.090561,0.054337,0.923721
19.5695,-0.108673,0.054337,0.923721
19.5797,-0.108673,0.054337,0.905609
19.5899,-0.108673,0.054337,0.905609
19.6,-0.090561,0.054337,0.905609
19.6103,-0.090561,0.054337,0.923721
19.6204,-0.108673,0.054337,0.923721
19.6305,-0.090561,0.054337,0.923721
19.6407,-0.090561,0.054337,0.905609
19.6509,-0.090561,0.054337,0.923721
19.6611,-0.108673,0.054337,0.923721
19.6712,-0.090561,0.072449,0.905609
19.6813,-0.108673,0.054337,0.923721
19.6915,-0.108673,0.054337,0.905609
19.7018,-0.090561,0.054337,0.905609
19.7118,-0.108673,0.054337,0.905609
19.7221,-0.090561,0.054337,0.923721
19.7324,-0.072449,0.054337,0.923721
19.7425,-0.090561,0.054337,0.905609
19.7526,-0.108673,0.054337,0.905609
19.7628,-0.090561,0.054337,0.905609
19.7729,-0.090561,0.054337,0.905609
19.7831,-0.090561,0.054337,0.905609
19.7933,-0.090561,0.054337,0.923721
19.8034,-0.090561,0.072449,0.923721
19.8137,-0.108673,0.054337,0.905609
19.8238,-0.108673,0.054337,0.923721
19.8339,-0.090561,0.054337,0.905609
19.8441,-0.108673,0.054337,0.905609
19.8542,-0.090561,0.072449,0.905609
19.8645,-0.108673,0.054337,0.905609
19.8746,-0.090561,0.072449,0.905609
19.8848,-0.090561,0.054337,0.905609
19.8945,-0.090561,0.054337,0.923721
19.9046,-0.090561,0.054337,0.923721
19.9147,-0.108673,0.054337,0.905609
19.9247,-0.090561,0.072449,0.923721
19.9348,-0.108673,0.054337,0.923721
19.9448,-0.108673,0.054337,0.923721
19.9549,-0.108673,0.054337,0.923721
19.9649,-0.090561,0.054337,0.905609
19.9749,-0.090561,0.072449,0.905609
19.985,-0.090561,0.054337,0.923721
19.9952,-0.108673,0.054337,0.905609
20.0052,-0.090561,0.054337,0.905609
20.0153,-0.090561,0.054337,0.905609
20.0254,-0.090561,0.054337,0.905609
20.0365,-0.090561,0.072449,0.905609
20.0466,-0.090561,0.054337,0.905609
20.0568,-0.090561,0.054337,0.923721
20.0667,-0.090561,0.054337,0.923721
20.0771,-0.108673,0.054337,0.905609
20.0873,-0.090561,0.054337,0.923721
20.0975,-0.090561,0.072449,0.905609
20.1076,-0.090561,0.054337,0.905609
20.1178,-0.108673,0.054337,0.905609
20.1279,-0.090561,0.054337,0.905609
20.1381,-0.108673,0.054337,0.905609
20.1483,-0.090561,0.054337,0.923721
20.1584,-0.108673,0.054337,0.923721
20.1686,-0.090561,0.072449,0.905609
20.1788,-0.108673,0.054337,0.905609
20.1889,-0.090561,0.054337,0.905609
20.1991,-0.090561,0.072449,0.923721
20.2094,-0.090561,0.054337,0.905609
20.2194,-0.090561,0.054337,0.905609
20.2296,-0.090561,0.054337,0.923721
20.2397,-0.090561,0.054337,0.905609
20.2499,-0.090561,0.054337,0.923721
20.2601,-0.090561,0.054337,0.923721
20.2703,-0.108673,0.054337,0.923721
20.2804,-0.090561,0.054337,0.905609
20.2906,-0.090561,0.054337,0.923721
20.3007,-0.090561,0.054337,0.905609
20.311,-0.108673,0.054337,0.923721
20.3211,-0.108673,0.054337,0.905609
20.3312,-0.090561,0.054337,0.923721
20.3414,-0.108673,0.054337,0.905609
20.3516,-0.090561,0.054337,0.905609
20.3618,-0.090561,0.072449,0.923721
20.3719,-0.108673,0.054337,0.923721
20.3821,-0.090561,0.054337,0.905609
20.3922,-0.090561,0.054337,0.905609
20.4024,-0.090561,0.054337,0.923721
20.4126,-0.090561,0.072449,0.923721
20.4228,-0.108673,0.054337,0.923721
20.4329,-0.090561,0.054337,0.905609
20.4431,-0.090561,0.072449,0.923721
20.4532,-0.090561,0.054337,0.923721
20.4634,-0.108673,0.054337,0.923721
20.4735,-0.090561,0.054337,0.905609
20.4837,-0.090561,0.072449,0.923721
20.4938,-0.090561,0.054337,0.905609
20.5041,-0.108673,0.072449,0.923721
20.5142,-0.108673,0.054337,0.923721
20.5244,-0.108673,0.054337,0.905609
20.5346,-0.090561,0.054337,0.905609
20.5448,-0.090561,0.054337,0.923721
20.5549,-0.108673,0.054337,0.923721
20.5651,-0.090561,0.054337,0.905609
20.5752,-0.090561,0.054337,0.923721
20.5855,-0.090561,0.054337,0.905609
20.5956,-0.090561,0.054337,0.923721
20.6059,-0.090561,0.054337,0.905609
20.616,-0.108673,0.054337,0.923721
20.6261,-0.090561,0.072449,0.905609
20.6364,-0.090561,0.054337,0.905609
20.6466,-0.090561,0.072449,0.923721
20.6569,-0.108673,0.054337,0.905609
20.6669,-0.090561,0.054337,0.905609
20.6768,-0.108673,0.054337,0.923721
20.6873,-0.090561,0.054337,0.905609
20.6977,-0.090561,0.054337,0.905609
20.7077,-0.090561,0.054337,0.905609
20.7177,-0.090561,0.072449,0.923721
20.7278,-0.090561,0.054337,0.923721
20.7379,-0.090561,0.054337,0.923721
20.7487,-0.090561,0.054337,0.923721
20.7603,-0.108673,0.054337,0.905609
20.7688,-0.090561,0.054337,0.923721
20.7778,-0.090561,0.072449,0.923721
20.7891,-0.090561,0.054337,0.923721
20.799,-0.090561,0.054337,0.905609
20.8091,-0.108673,0.054337,0.905609
20.8192,-0.090561,0.054337,0.905609
20.8294,-0.090561,0.054337,0.905609
20.8395,-0.090561,0.054337,0.905609
20.8497,-0.108673,0.072449,0.905609
20.8598,-0.090561,0.054337,0.905609
20.87,-0.090561,0.054337,0.905609
20.8801,-0.108673,0.054337,0.905609
20.8903,-0.090561,0.054337,0.905609
20.9005,-0.090561,0.054337,0.905609
20.9108,-0.090561,0.072449,0.923721
20.9208,-0.090561,0.072449,0.923721
20.931,-0.090561,0.054337,0.905609
20.9411,-0.090561,0.054337,0.923721
20.9513,-0.108673,0.054337,0.905609
20.9615,-0.090561,0.054337,0.905609
20.9716,-0.090561,0.054337,0.923721
20.9818,-0.108673,0.054337,0.923721
20.992,-0.090561,0.054337,0.923721
21.0021,-0.108673,0.054337,0.905609
21.0124,-0.090561,0.054337,0.923721
21.0225,-0.108673,0.072449,0.905609
21.0326,-0.090561,0.054337,0.905609
21.0428,-0.090561,0.054337,0.923721
21.053,-0.108673,0.054337,0.905609
21.0631,-0.090561,0.054337,0.905609
21.0733,-0.108673,0.054337,0.905609
21.0834,-0.090561,0.054337,0.905609
21.0936,-0.090561,0.054337,0.905609
21.1038,-0.090561,0.054337,0.923721
21.1139,-0.108673,0.054337,0.923721
21.1241,-0.108673,0.054337,0.905609
21.1343,-0.090561,0.054337,0.923721
21.1444,-0.090561,0.054337,0.923721
21.1546,-0.090561,0.054337,0.923721
21.1648,-0.090561,0.072449,0.905609
21.175,-0.090561,0.054337,0.923721
21.1851,-0.108673,0.036224,0.905609
21.1953,-0.090561,0.054337,0.905609
21.2056,-0.090561,0.054337,0.905609
21.2157,-0.090561,0.054337,0.905609
21.2259,-0.108673,0.054337,0.905609
21.236,-0.090561,0.054337,0.905609
21.2462,-0.090561,0.054337,0.905609
21.2566,-0.090561,0.054337,0.923721
21.2665,-0.108673,0.054337,0.905609
21.2766,-0.090561,0.054337,0.905609
21.2868,-0.108673,0.054337,0.923721
21.2971,-0.108673,0.054337,0.923721
21.3072,-0.108673,0.054337,0.905609
21.3174,-0.090561,0.054337,0.905609
21.3276,-0.090561,0.054337,0.905609
21.3377,-0.090561,0.054337,0.923721
21.3479,-0.090561,0.054337,0.905609
21.3581,-0.090561,0.054337,0.923721
21.3683,-0.090561,0.054337,0.923721
21.3784,-0.090561,0.054337,0.905609
21.3886,-0.090561,0.054337,0.923721
21.3987,-0.090561,0.054337,0.905609
21.4089,-0.108673,0.054337,0.923721
21.42,-0.090561,0.054337,0.905609
21.4292,-0.108673,0.054337,0.923721
21.4396,-0.090561,0.072449,0.923721
21.4497,-0.108673,0.054337,0.905609
21.4598,-0.090561,0.054337,0.905609
21.47,-0.090561,0.072449,0.905609
21.4802,-0.090561,0.072449,0.923721
21.4903,-0.090561,0.054337,0.905609
21.5005,-0.090561,0.054337,0.905609
21.5106,-0.090561,0.054337,0.905609
21.5208,-0.108673,0.054337,0.923721
21.531,-0.090561,0.054337,0.905609
21.5411,-0.090561,0.054337,0.923721
21.5513,-0.090561,0.054337,0.923721
21.5614,-0.090561,0.054337,0.905609
21.5716,-0.108673,0.054337,0.905609
21.5818,-0.090561,0.054337,0.923721
21.592,-0.108673,0.054337,0.923721
21.6021,-0.090561,0.054337,0.905609
21.6124,-0.090561,0.054337,0.905609
21.6224,-0.090561,0.054337,0.905609
21.6326,-0.090561,0.054337,0.923721
21.6428,-0.090561,0.072449,0.923721
21.6529,-0.090561,0.054337,0.923721
21.6631,-0.090561,0.054337,0.923721
21.6733,-0.090561,0.072449,0.923721
21.6834,-0.090561,0.054337,0.905609
21.6936,-0.090561,0.072449,0.905609
21.7037,-0.108673,0.054337,0.923721
21.714,-0.108673,0.054337,0.905609
21.7241,-0.090561,0.054337,0.905609
21.7342,-0.090561,0.054337,0.923721
21.7445,-0.108673,0.054337,0.923721
21.7546,-0.090561,0.072449,0.923721
21.7648,-0.090561,0.054337,0.923721
21.775,-0.090561,0.054337,0.923721
21.7852,-0.108673,0.054337,0.923721
21.7953,-0.108673,0.054337,0.923721
21.8055,-0.108673,0.054337,0.905609
21.8157,-0.090561,0.072449,0.923721
21.8258,-0.108673,0.054337,0.905609
21.836,-0.090561,0.054337,0.905609
21.8462,-0.090561,0.072449,0.923721
21.8563,-0.090561,0.072449,0.923721
21.8665,-0.090561,0.072449,0.923721
21.8767,-0.108673,0.054337,0.905609
21.8867,-0.090561,0.072449,0.923721
21.8971,-0.108673,0.054337,0.905609
21.9072,-0.108673,0.072449,0.923721
21.9174,-0.090561,0.054337,0.905609
21.9277,-0.108673,0.054337,0.905609
21.9377,-0.090561,0.054337,0.905609
21.9479,-0.108673,0.054337,0.923721
21.958,-0.090561,0.072449,0.923721
21.9682,-0.090561,0.072449,0.923721
21.9785,-0.090561,0.072449,0.905609
21.9885,-0.108673,0.054337,0.905609
21.9989,-0.090561,0.054337,0.905609
22.0084,-0.090561,0.054337,0.923721
22.0191,-0.090561,0.054337,0.923721
22.0292,-0.090561,0.054337,0.905609
22.0394,-0.090561,0.054337,0.905609
22.0495,-0.090561,0.054337,0.923721
22.0597,-0.090561,0.072449,0.905609
22.0698,-0.090561,0.054337,0.905609
22.08,-0.090561,0.054337,0.905609
22.0901,-0.090561,0.072449,0.923721
22.1003,-0.090561,0.054337,0.905609
22.1104,-0.090561,0.072449,0.905609
22.1206,-0.090561,0.072449,0.923721
22.1308,-0.090561,0.072449,0.923721
22.141,-0.108673,0.054337,0.905609
22.1511,-0.090561,0.054337,0.923721
22.1614,-0.090561,0.054337,0.923721
22.1715,-0.108673,0.072449,0.923721
22.1816,-0.090561,0.054337,0.905609
22.1918,-0.090561,0.072449,0.905609
22.2019,-0.090561,0.072449,0.905609
22.2121,-0.090561,0.054337,0.905609
22.2227,-0.090561,0.054337,0.905609
22.2327,-0.090561,0.054337,0.905609
22.2429,-0.090561,0.054337,0.905609
22.253,-0.090561,0.054337,0.923721
22.2632,-0.108673,0.072449,0.923721
22.2733,-0.090561,0.072449,0.923721
22.2835,-0.090561,0.054337,0.905609
22.2937,-0.090561,0.054337,0.923721
22.3038,-0.108673,0.054337,0.923721
22.3141,-0.090561,0.054337,0.923721
22.3242,-0.108673,0.054337,0.905609
22.3343,-0.090561,0.054337,0.905609
22.3446,-0.090561,0.054337,0.923721
22.3548,-0.090561,0.054337,0.905609
22.365,-0.108673,0.054337,0.905609
22.3751,-0.108673,0.054337,0.923721
22.3853,-0.090561,0.054337,0.905609
22.3955,-0.090561,0.054337,0.905609
22.4056,-0.090561,0.054337,0.905609
22.4158,-0.090561,0.072449,0.905609
22.426,-0.108673,0.054337,0.923721
22.4362,-0.090561,0.054337,0.905609
22.4463,-0.108673,0.054337,0.905609
22.4565,-0.090561,0.072449,0.905609
22.4666,-0.090561,0.054337,0.905609
22.4767,-0.090561,0.054337,0.905609
22.4871,-0.090561,0.054337,0.905609
22.4973,-0.090561,0.054337,0.905609
22.5074,-0.090561,0.072449,0.905609
22.5176,-0.090561,0.054337,0.905609
22.5277,-0.090561,0.072449,0.923721
22.538,-0.090561,0.054337,0.905609
22.5481,-0.090561,0.054337,0.923721
22.5582,-0.090561,0.054337,0.923721
22.5684,-0.090561,0.054337,0.923721
22.5788,-0.108673,0.054337,0.923721
22.5889,-0.090561,0.054337,0.905609
22.5991,-0.090561,0.054337,0.923721
22.6093,-0.090561,0.054337,0.905609
22.6194,-0.090561,0.054337,0.905609
22.6296,-0.090561,0.054337,0.923721
22.6397,-0.108673,0.054337,0.905609
22.6499,-0.090561,0.054337,0.905609
22.6601,-0.090561,0.054337,0.923721
22.6702,-0.108673,0.054337,0.923721
22.6804,-0.108673,0.054337,0.923721
22.6905,-0.108673,0.054337,0.923721
22.7007,-0.090561,0.054337,0.923721
22.7109,-0.108673,0.054337,0.905609
22.721,-0.108673,0.072449,0.923721
22.7312,-0.108673,0.054337,0.905609
22.7414,-0.090561,0.054337,0.923721
22.7515,-0.090561,0.054337,0.905609
22.7617,-0.108673,0.054337,0.923721
22.7719,-0.090561,0.054337,0.905609
22.7821,-0.090561,0.054337,0.923721
22.7922,-0.090561,0.054337,0.923721
22.8024,-0.108673,0.054337,0.905609
22.8125,-0.090561,0.054337,0.905609
22.8227,-0.090561,0.054337,0.923721
22.833,-0.090561,0.054337,0.905609
22.843,-0.090561,0.054337,0.923721
22.8532,-0.090561,0.054337,0.905609
22.8633,-0.090561,0.054337,0.923721
22.8735,-0.090561,0.072449,0.905609
22.8839,-0.090561,0.054337,0.905609
22.8939,-0.090561,0.054337,0.905609
22.9046,-0.090561,0.054337,0.905609
22.9149,-0.090561,0.054337,0.923721
22.9243,-0.090561,0.054337,0.923721
22.934,-0.090561,0.054337,0.923721
22.9451,-0.108673,0.054337,0.923721
22.9552,-0.090561,0.054337,0.905609
22.9654,-0.090561,0.054337,0.905609
22.9756,-0.090561,0.054337,0.905609
22.9857,-0.090561,0.072449,0.923721
22.9959,-0.108673,0.054337,0.905609
23.0061,-0.090561,0.054337,0.905609
23.0163,-0.090561,0.054337,0.905609
23.0264,-0.090561,0.054337,0.905609
23.0367,-0.108673,0.054337,0.923721
23.0467,-0.108673,0.054337,0.905609
23.0571,-0.090561,0.054337,0.905609
23.0672,-0.108673,0.054337,0.923721
23.0774,-0.090561,0.054337,0.905609
23.0876,-0.108673,0.054337,0.905609
23.0977,-0.090561,0.054337,0.923721
23.1079,-0.108673,0.054337,0.905609
23.1181,-0.090561,0.054337,0.923721
23.1282,-0.108673,0.072449,0.923721
23.1384,-0.090561,0.054337,0.923721
23.1485,-0.090561,0.072449,0.905609
23.1587,-0.090561,0.054337,0.905609
23.1689,-0.090561,0.054337,0.905609
23.179,-0.108673,0.054337,0.923721
23.1892,-0.108673,0.054337,0.905609
23.1994,-0.090561,0.054337,0.923721
23.2096,-0.108673,0.054337,0.923721
23.2197,-0.108673,0.054337,0.905609
23.2299,-0.090561,0.072449,0.923721
23.24,-0.090561,0.054337,0.923721
23.2502,-0.108673,0.054337,0.905609
23.2604,-0.090561,0.054337,0.905609
23.2705,-0.090561,0.072449,0.923721
23.2807,-0.090561,0.072449,0.905609
23.2909,-0.090561,0.072449,0.905609
23.301,-0.108673,0.072449,0.923721
23.3112,-0.108673,0.054337,0.923721
23.3214,-0.090561,0.054337,0.923721
23.3315,-0.108673,0.054337,0.923721
23.3417,-0.090561,0.054337,0.905609
23.3519,-0.090561,0.054337,0.923721
23.3621,-0.090561,0.054337,0.905609
23.3722,-0.090561,0.054337,0.923721
23.3824,-0.090561,0.054337,0.905609
23.3925,-0.090561,0.054337,0.905609
23.4027,-0.090561,0.054337,0.905609
23.4129,-0.090561,0.054337,0.905609
23.423,-0.090561,0.054337,0.905609
23.4332,-0.090561,0.072449,0.923721
23.4434,-0.090561,0.054337,0.905609
23.4535,-0.108673,0.054337,0.923721
23.4637,-0.090561,0.054337,0.923721
23.4739,-0.090561,0.054337,0.905609
23.4841,-0.090561,0.054337,0.905609
23.4942,-0.090561,0.054337,0.905609
23.5044,-0.090561,0.072449,0.923721
23.5146,-0.108673,0.054337,0.923721
23.5248,-0.090561,0.072449,0.923721
23.5351,-0.090561,0.072449,0.923721
23.5451,-0.090561,0.054337,0.923721
23.5553,-0.090561,0.072449,0.905609
23.5655,-0.090561,0.054337,0.923721
23.5756,-0.108673,0.054337,0.923721
23.5859,-0.090561,0.054337,0.905609
23.596,-0.090561,0.054337,0.923721
23.6061,-0.108673,0.054337,0.905609
23.6164,-0.090561,0.054337,0.923721
23.6265,-0.108673,0.054337,0.923721
23.6367,-0.108673,0.054337,0.905609
23.6467,-0.108673,0.054337,0.905609
23.6571,-0.108673,0.054337,0.905609
23.6673,-0.090561,0.072449,0.905609
23.6774,-0.090561,0.054337,0.923721
23.6877,-0.090561,0.054337,0.905609
23.6979,-0.072449,0.054337,0.905609
23.7081,-0.090561,0.054337,0.905609
23.7181,-0.108673,0.054337,0.905609
23.7284,-0.108673,0.054337,0.905609
23.7384,-0.108673,0.054337,0.905609
23.7486,-0.090561,0.054337,0.905609
23.7588,-0.090561,0.054337,0.923721
23.7689,-0.090561,0.054337,0.923721
23.7791,-0.108673,0.072449,0.905609
23.7893,-0.090561,0.054337,0.905609
23.7994,-0.090561,0.054337,0.905609
23.8097,-0.090561,0.054337,0.923721
23.8197,-0.090561,0.054337,0.923721
23.8299,-0.090561,0.054337,0.923721
23.8401,-0.090561,0.054337,0.905609
23.8502,-0.090561,0.054337,0.905609
23.8604,-0.090561,0.054337,0.905609
23.8706,-0.090561,0.054337,0.905609
23.8807,-0.090561,0.054337,0.923721
23.8909,-0.090561,0.054337,0.923721
23.9011,-0.108673,0.054337,0.923721
23.9113,-0.090561,0.054337,0.905609
23.9214,-0.090561,0.054337,0.923721
23.9316,-0.090561,0.054337,0.905609
23.9418,-0.108673,0.054337,0.905609
23.9519,-0.090561,0.054337,0.905609
23.9621,-0.090561,0.054337,0.923721
23.9722,-0.090561,0.054337,0.905609
23.9824,-0.090561,0.054337,0.905609
23.9926,-0.090561,0.054337,0.923721
24.0029,-0.090561,0.054337,0.923721
24.0122,-0.090561,0.072449,0.923721
24.0232,-0.090561,0.072449,0.923721
24.0333,-0.090561,0.054337,0.905609
24.0435,-0.090561,0.054337,0.905609
24.0536,-0.090561,0.054337,0.905609
24.0637,-0.108673,0.054337,0.905609
24.0739,-0.090561,0.054337,0.923721
24.084,-0.090561,0.054337,0.905609
24.0942,-0.090561,0.054337,0.905609
24.1044,-0.090561,0.072449,0.923721
24.1145,-0.090561,0.054337,0.923721
24.1247,-0.090561,0.054337,0.923721
24.1349,-0.090561,0.054337,0.923721
24.1451,-0.108673,0.054337,0.905609
24.1552,-0.090561,0.054337,0.923721
24.1654,-0.090561,0.054337,0.905609
24.1756,-0.090561,0.054337,0.905609
24.1857,-0.090561,0.072449,0.923721
24.1959,-0.090561,0.054337,0.923721
24.2061,-0.090561,0.054337,0.905609
24.2162,-0.108673,0.054337,0.905609
24.2264,-0.090561,0.054337,0.923721
24.2366,-0.090561,0.054337,0.905609
24.2467,-0.090561,0.072449,0.905609
24.2572,-0.090561,0.054337,0.905609
24.2672,-0.090561,0.054337,0.923721
24.2774,-0.090561,0.072449,0.923721
24.2876,-0.090561,0.054337,0.923721
24.2977,-0.090561,0.054337,0.905609
24.3079,-0.090561,0.054337,0.905609
24.3181,-0.090561,0.054337,0.905609
24.3282,-0.090561,0.054337,0.923721
24.3385,-0.108673,0.054337,0.923721
24.3485,-0.108673,0.054337,0.905609
24.3587,-0.108673,0.054337,0.905609
24.3689,-0.090561,0.054337,0.905609
24.379,-0.090561,0.054337,0.923721
24.3893,-0.090561,0.054337,0.887497
24.3994,-0.090561,0.072449,0.923721
24.4097,-0.108673,0.054337,0.923721
24.4197,-0.090561,0.054337,0.923721
24.4299,-0.090561,0.054337,0.905609
24.4399,-0.090561,0.054337,0.905609
24.4501,-0.108673,0.054337,0.923721
24.4604,-0.090561,0.072449,0.905609
24.4702,-0.090561,0.054337,0.923721
24.4807,-0.090561,0.054337,0.905609
24.4908,-0.090561,0.054337,0.923721
24.501,-0.090561,0.054337,0.905609
24.5111,-0.090561,0.054337,0.923721
24.5213,-0.108673,0.054337,0.905609
24.5314,-0.090561,0.054337,0.905609
24.5416,-0.090561,0.054337,0.923721
24.5517,-0.090561,0.054337,0.923721
24.5619,-0.108673,0.054337,0.905609
24.5721,-0.090561,0.054337,0.905609
24.5822,-0.108673,0.054337,0.905609
24.5924,-0.090561,0.054337,0.923721
24.6026,-0.108673,0.054337,0.905609
24.6127,-0.108673,0.054337,0.905609
24.6229,-0.090561,0.072449,0.905609
24.633,-0.090561,0.054337,0.905609
24.6432,-0.090561,0.054337,0.905609
24.6534,-0.108673,0.054337,0.905609
24.6635,-0.090561,0.072449,0.923721
24.6737,-0.090561,0.054337,0.905609
24.6838,-0.090561,0.054337,0.905609
24.694,-0.090561,0.054337,0.923721
24.7042,-0.090561,0.054337,0.923721
24.7144,-0.108673,0.054337,0.923721
24.7245,-0.090561,0.072449,0.923721
24.7347,-0.108673,0.054337,0.923721
24.745,-0.090561,0.054337,0.923721
24.7551,-0.090561,0.054337,0.923721
24.7648,-0.108673,0.054337,0.923721
24.7756,-0.108673,0.054337,0.923721
24.7857,-0.090561,0.054337,0.923721
24.7958,-0.090561,0.054337,0.923721
24.806,-0.108673,0.054337,0.905609
24.8162,-0.090561,0.054337,0.905609
24.8263,-0.108673,0.072449,0.905609
24.8365,-0.090561,0.054337,0.905609
24.8466,-0.090561,0.054337,0.905609
24.8567,-0.090561,0.072449,0.923721
24.8671,-0.108673,0.054337,0.905609
24.8772,-0.090561,0.072449,0.923721
24.8874,-0.090561,0.054337,0.905609
24.8976,-0.090561,0.072449,0.923721
24.9077,-0.108673,0.054337,0.923721
24.9179,-0.090561,0.054337,0.923721
24.9281,-0.090561,0.054337,0.923721
24.9382,-0.090561,0.054337,0.905609
24.9484,-0.090561,0.054337,0.905609
24.9585,-0.090561,0.054337,0.905609
24.9687,-0.090561,0.072449,0.923721
24.9789,-0.108673,0.072449,0.905609
24.989,-0.090561,0.072449,0.905609
24.9992,-0.108673,0.054337,0.923721
25.0094,-0.090561,0.054337,0.923721
25.0196,-0.090561,0.054337,0.923721
25.0297,-0.090561,0.054337,0.905609
25.04,-0.090561,0.054337,0.923721
25.0501,-0.090561,0.054337,0.923721
25.0602,-0.108673,0.054337,0.923721
25.0704,-0.108673,0.054337,0.923721
25.0805,-0.108673,0.054337,0.905609
25.0908,-0.090561,0.054337,0.905609
25.1009,-0.090561,0.054337,0.923721
25.111,-0.090561,0.054337,0.923721
25.1212,-0.108673,0.054337,0.923721
25.1314,-0.090561,0.072449,0.923721
25.1416,-0.108673,0.054337,0.923721
25.1517,-0.090561,0.072449,0.905609
25.1618,-0.090561,0.054337,0.923721
25.1719,-0.090561,0.072449,0.923721
25.1821,-0.090561,0.054337,0.923721
25.1922,-0.090561,0.054337,0.923721
25.2024,-0.108673,0.054337,0.905609
25.2125,-0.108673,0.054337,0.905609
25.2227,-0.108673,0.054337,0.905609
25.2329,-0.090561,0.054337,0.905609
25.243,-0.090561,0.054337,0.923721
25.2532,-0.090561,0.054337,0.923721
25.2634,-0.090561,0.054337,0.923721
25.2735,-0.090561,0.054337,0.905609
25.2837,-0.090561,0.054337,0.923721
25.2939,-0.108673,0.054337,0.905609
25.304,-0.090561,0.054337,0.923721
25.3142,-0.090561,0.054337,0.905609
25.3243,-0.108673,0.054337,0.923721
25.3345,-0.090561,0.072449,0.905609
25.3447,-0.090561,0.054337,0.923721
25.3549,-0.090561,0.054337,0.905609
25.3651,-0.090561,0.054337,0.905609
25.3753,-0.108673,0.054337,0.905609
25.3854,-0.108673,0.054337,0.905609
25.3956,-0.108673,0.054337,0.923721
25.4057,-0.090561,0.054337,0.923721
25.4159,-0.090561,0.072449,0.923721
25.4261,-0.108673,0.054337,0.923721
25.4362,-0.090561,0.054337,0.905609
25.4464,-0.090561,0.054337,0.923721
25.4566,-0.090561,0.072449,0.923721
25.4667,-0.090561,0.054337,0.923721
25.4771,-0.108673,0.054337,0.905609
25.4872,-0.090561,0.054337,0.923721
25.4974,-0.090561,0.072449,0.923721
25.5076,-0.108673,0.054337,0.905609
25.5177,-0.090561,0.072449,0.923721
25.5279,-0.090561,0.054337,0.905609
25.5382,-0.090561,0.054337,0.905609
25.5482,-0.090561,0.054337,0.905609
25.5584,-0.090561,0.054337,0.923721
25.5686,-0.108673,0.054337,0.905609
25.5789,-0.108673,0.054337,0.923721
25.5889,-0.108673,0.054337,0.905609
25.5991,-0.108673,0.054337,0.923721
25.6092,-0.108673,0.054337,0.923721
25.6194,-0.108673,0.054337,0.923721
25.6296,-0.108673,0.054337,0.905609
25.6397,-0.090561,0.054337,0.905609
25.6499,-0.090561,0.072449,0.923721
25.6601,-0.090561,0.072449,0.923721
25.6702,-0.090561,0.054337,0.923721
25.6804,-0.090561,0.054337,0.905609
25.6905,-0.090561,0.054337,0.905609
25.7007,-0.090561,0.054337,0.905609
25.7109,-0.090561,0.054337,0.923721
25.7212,-0.108673,0.054337,0.923721
25.7312,-0.108673,0.054337,0.923721
25.7414,-0.108673,0.054337,0.923721
25.7516,-0.090561,0.054337,0.923721
25.7617,-0.090561,0.054337,0.923721
25.7719,-0.108673,0.054337,0.905609
25.7821,-0.090561,0.054337,0.905609
25.7923,-0.108673,0.054337,0.905609
25.8024,-0.090561,0.072449,0.923721
25.8125,-0.090561,0.072449,0.905609
25.8227,-0.090561,0.054337,0.905609
25.8328,-0.090561,0.054337,0.905609
25.8431,-0.090561,0.054337,0.905609
25.8532,-0.090561,0.054337,0.923721
25.8633,-0.090561,0.054337,0.905609
25.8735,-0.108673,0.054337,0.905609
25.8837,-0.090561,0.054337,0.905609
25.8939,-0.108673,0.054337,0.923721
25.904,-0.090561,0.072449,0.923721
25.9141,-0.090561,0.054337,0.905609
25.9243,-0.108673,0.054337,0.923721
25.9345,-0.090561,0.054337,0.905609
25.9446,-0.090561,0.054337,0.923721
25.9548,-0.090561,0.054337,0.905609
25.9649,-0.090561,0.072449,0.923721
25.9751,-0.090561,0.072449,0.905609
25.9853,-0.090561,0.054337,0.905609
25.9949,-0.090561,0.054337,0.905609
26.0058,-0.090561,0.054337,0.923721
26.0158,-0.090561,0.072449,0.905609
26.026,-0.090561,0.054337,0.923721
26.0362,-0.090561,0.054337,0.905609
26.0463,-0.090561,0.072449,0.923721
26.0566,-0.108673,0.054337,0.923721
26.0666,-0.090561,0.054337,0.905609
26.0767,-0.090561,0.072449,0.923721
26.0871,-0.090561,0.072449,0.923721
26.0972,-0.090561,0.072449,0.923721
26.1074,-0.108673,0.054337,0.923721
26.1176,-0.108673,0.054337,0.905609
26.1277,-0.090561,0.054337,0.905609
26.1379,-0.090561,0.054337,0.905609
26.1481,-0.090561,0.072449,0.923721
26.1582,-0.108673,0.054337,0.923721
26.1684,-0.090561,0.054337,0.905609
26.1786,-0.090561,0.054337,0.905609
26.1887,-0.090561,0.054337,0.923721
26.1989,-0.108673,0.054337,0.905609
26.209,-0.090561,0.054337,0.905609
26.2192,-0.108673,0.054337,0.905609
26.2294,-0.090561,0.072449,0.923721
26.2395,-0.090561,0.054337,0.923721
26.2497,-0.090561,0.054337,0.905609
26.26,-0.090561,0.054337,0.905609
26.27,-0.090561,0.054337,0.905609
26.2802,-0.108673,0.054337,0.905609
26.2903,-0.108673,0.054337,0.905609
26.3005,-0.090561,0.054337,0.923721
26.3107,-0.108673,0.054337,0.905609
26.3209,-0.090561,0.072449,0.923721
26.331,-0.090561,0.054337,0.923721
26.3412,-0.108673,0.054337,0.923721
26.3513,-0.108673,0.054337,0.905609
26.3615,-0.108673,0.054337,0.905609
26.3717,-0.108673,0.054337,0.923721
26.3818,-0.090561,0.054337,0.905609
26.392,-0.090561,0.072449,0.923721
26.4022,-0.108673,0.054337,0.905609
26.4125,-0.108673,0.054337,0.905609
26.4229,-0.090561,0.054337,0.923721
26.4328,-0.090561,0.054337,0.905609
26.4429,-0.090561,0.054337,0.923721
26.453,-0.090561,0.054337,0.923721
26.4632,-0.108673,0.072449,0.923721
26.4733,-0.090561,0.072449,0.923721
26.4835,-0.090561,0.072449,0.905609
26.4937,-0.090561,0.054337,0.923721
26.5039,-0.090561,0.054337,0.923721
26.514,-0.108673,0.054337,0.905609
26.5242,-0.090561,0.054337,0.923721
26.5343,-0.108673,0.054337,0.905609
26.5445,-0.090561,0.072449,0.923721
26.5547,-0.090561,0.054337,0.923721
26.5649,-0.108673,0.054337,0.905609
26.575,-0.090561,0.054337,0.905609
26.5852,-0.090561,0.054337,0.923721
26.5954,-0.090561,0.054337,0.905609
26.6055,-0.090561,0.054337,0.905609
26.6157,-0.090561,0.054337,0.923721
26.6259,-0.108673,0.072449,0.905609
26.6361,-0.090561,0.054337,0.905609
26.6462,-0.090561,0.054337,0.905609
26.6563,-0.108673,0.054337,0.905609
26.6665,-0.090561,0.054337,0.923721
26.6767,-0.090561,0.054337,0.905609
26.6867,-0.090561,0.072449,0.923721
26.6971,-0.090561,0.054337,0.905609
26.7072,-0.090561,0.054337,0.905609
26.7174,-0.090561,0.054337,0.923721
26.7276,-0.108673,0.054337,0.905609
26.7377,-0.090561,0.072449,0.923721
26.748,-0.090561,0.072449,0.923721
26.7582,-0.090561,0.054337,0.905609
26.7683,-0.090561,0.054337,0.923721
26.7784,-0.108673,0.054337,0.923721
26.7886,-0.108673,0.054337,0.923721
26.7988,-0.090561,0.054337,0.923721
26.8089,-0.108673,0.054337,0.923721
26.8191,-0.108673,0.054337,0.905609
26.8292,-0.108673,0.054337,0.923721
26.8394,-0.108673,0.054337,0.923721
26.8497,-0.108673,0.054337,0.905609
26.8598,-0.090561,0.054337,0.905609
26.8699,-0.108673,0.054337,0.905609
26.8801,-0.090561,0.054337,0.923721
26.8902,-0.090561,0.054337,0.905609
26.9003,-0.090561,0.054337,0.905609
26.9105,-0.108673,0.054337,0.905609
26.9206,-0.108673,0.054337,0.923721
26.9308,-0.108673,0.072449,0.905609
26.941,-0.090561,0.072449,0.905609
26.9511,-0.090561,0.072449,0.923721
26.9613,-0.090561,0.054337,0.923721
26.9714,-0.090561,0.072449,0.923721
26.9816,-0.108673,0.054337,0.923721
26.9918,-0.090561,0.054337,0.923721
27.0019,-0.108673,0.054337,0.905609
27.0122,-0.108673,0.072449,0.905609
27.0224,-0.090561,0.072449,0.905609
27.0324,-0.108673,0.054337,0.905609
27.0426,-0.090561,0.072449,0.923721
27.0528,-0.108673,0.072449,0.923721
27.0629,-0.090561,0.072449,0.923721
27.0731,-0.090561,0.072449,0.923721
27.0832,-0.108673,0.054337,0.923721
27.0934,-0.090561,0.054337,0.905609
27.1036,-0.090561,0.054337,0.923721
27.1137,-0.090561,0.072449,0.923721
27.1239,-0.108673,0.054337,0.905609
27.1341,-0.108673,0.054337,0.923721
27.1442,-0.090561,0.054337,0.923721
27.1544,-0.108673,0.054337,0.923721
27.1645,-0.090561,0.054337,0.923721
27.1748,-0.090561,0.054337,0.905609
27.1849,-0.090561,0.054337,0.905609
27.1951,-0.090561,0.054337,0.923721
27.2059,-0.108673,0.054337,0.923721
27.2154,-0.108673,0.054337,0.923721
27.2255,-0.108673,0.054337,0.923721
27.2359,-0.090561,0.072449,0.923721
27.2459,-0.108673,0.054337,0.923721
27.256,-0.090561,0.072449,0.905609
27.2662,-0.108673,0.072449,0.923721
27.2764,-0.090561,0.054337,0.905609
27.2866,-0.090561,0.072449,0.923721
27.2967,-0.090561,0.054337,0.923721
27.3067,-0.090561,0.054337,0.923721
27.3171,-0.090561,0.054337,0.923721
27.3272,-0.108673,0.054337,0.905609
27.3374,-0.090561,0.054337,0.923721
27.3475,-0.108673,0.054337,0.923721
27.3578,-0.108673,0.054337,0.905609
27.3679,-0.090561,0.054337,0.905609
27.3781,-0.108673,0.054337,0.923721
27.3882,-0.090561,0.054337,0.923721
27.3984,-0.108673,0.054337,0.923721
27.4086,-0.090561,0.054337,0.923721
27.4187,-0.108673,0.054337,0.905609
27.4289,-0.090561,0.054337,0.905609
27.439,-0.108673,0.054337,0.923721
27.4492,-0.090561,0.072449,0.905609
27.4594,-0.090561,0.054337,0.923721
27.4695,-0.090561,0.072449,0.923721
27.4797,-0.090561,0.054337,0.923721
27.4899,-0.090561,0.054337,0.923721
27.5,-0.108673,0.054337,0.923721
27.5108,-0.090561,0.072449,0.905609
27.5205,-0.090561,0.054337,0.905609
27.5306,-0.090561,0.054337,0.905609
27.5408,-0.108673,0.054337,0.905609
27.551,-0.090561,0.054337,0.923721
27.5611,-0.090561,0.054337,0.923721
27.5713,-0.090561,0.072449,0.923721
27.5814,-0.108673,0.072449,0.923721
27.5916,-0.090561,0.072449,0.923721
27.6018,-0.108673,0.054337,0.923721
27.612,-0.108673,0.054337,0.905609
27.6221,-0.090561,0.054337,0.905609
27.6323,-0.090561,0.054337,0.905609
27.6424,-0.108673,0.054337,0.923721
27.6526,-0.108673,0.054337,0.923721
27.6628,-0.090561,0.054337,0.905609
27.6729,-0.090561,0.054337,0.923721
27.6831,-0.090561,0.054337,0.905609
27.6932,-0.090561,0.072449,0.923721
27.7035,-0.090561,0.072449,0.923721
27.7137,-0.108673,0.054337,0.905609
27.7238,-0.090561,0.054337,0.905609
27.7339,-0.090561,0.054337,0.923721
27.744,-0.090561,0.054337,0.905609
27.7542,-0.090561,0.054337,0.905609
27.7645,-0.108673,0.054337,0.923721
27.7746,-0.090561,0.072449,0.923721
27.7849,-0.090561,0.054337,0.905609
27.795,-0.090561,0.072449,0.923721
27.8051,-0.090561,0.072449,0.923721
27.8152,-0.090561,0.054337,0.905609
27.8254,-0.108673,0.054337,0.905609
27.8356,-0.108673,0.054337,0.905609
27.8457,-0.090561,0.054337,0.905609
27.8559,-0.108673,0.072449,0.923721
27.8661,-0.090561,0.072449,0.923721
27.8762,-0.090561,0.054337,0.905609
27.8864,-0.090561,0.054337,0.923721
27.8965,-0.090561,0.072449,0.905609
27.9067,-0.090561,0.054337,0.905609
27.9171,-0.090561,0.054337,0.905609
27.9272,-0.090561,0.054337,0.905609
27.9374,-0.090561,0.054337,0.923721
27.9476,-0.108673,0.054337,0.923721
27.9577,-0.108673,0.054337,0.923721
27.9679,-0.108673,0.054337,0.923721
27.9781,-0.108673,0.072449,0.923721
27.9883,-0.108673,0.054337,0.905609
27.9986,-0.108673,0.054337,0.923721
28.0081,-0.108673,0.054337,0.905609
28.0188,-0.090561,0.054337,0.905609
28.029,-0.090561,0.054337,0.905609
28.0393,-0.090561,0.054337,0.905609
28.0493,-0.108673,0.054337,0.905609
28.0594,-0.108673,0.054337,0.905609
28.0696,-0.090561,0.072449,0.923721
28.0797,-0.090561,0.054337,0.905609
28.0899,-0.090561,0.054337,0.923721
28.1001,-0.108673,0.054337,0.905609
28.1102,-0.090561,0.054337,0.905609
28.1204,-0.090561,0.054337,0.905609
28.1306,-0.090561,0.072449,0.905609
28.1407,-0.090561,0.072449,0.923721
28.1509,-0.090561,0.054337,0.905609
28.1611,-0.108673,0.054337,0.923721
28.1712,-0.090561,0.054337,0.923721
28.1814,-0.108673,0.054337,0.905609
28.1915,-0.108673,0.054337,0.905609
28.2017,-0.090561,0.054337,0.905609
28.2119,-0.090561,0.054337,0.905609
28.222,-0.090561,0.072449,0.923721
28.2322,-0.090561,0.054337,0.905609
28.2424,-0.090561,0.054337,0.923721
28.2525,-0.090561,0.072449,0.923721
28.2629,-0.108673,0.054337,0.905609
28.273,-0.090561,0.054337,0.923721
28.2832,-0.108673,0.054337,0.923721
28.2934,-0.090561,0.054337,0.905609
28.3035,-0.090561,0.054337,0.905609
28.3137,-0.090561,0.072449,0.905609
28.3238,-0.090561,0.054337,0.923721
28.334,-0.090561,0.054337,0.923721
28.3442,-0.108673,0.054337,0.905609
28.3543,-0.090561,0.054337,0.905609
28.3646,-0.090561,0.054337,0.905609
28.3748,-0.090561,0.054337,0.923721
28.3849,-0.090561,0.072449,0.923721
28.3951,-0.108673,0.054337,0.923721
28.4053,-0.108673,0.054337,0.923721
28.4155,-0.108673,0.054337,0.923721
28.4257,-0.090561,0.072449,0.923721
28.4358,-0.108673,0.054337,0.923721
28.446,-0.108673,0.054337,0.923721
28.4561,-0.090561,0.054337,0.923721
28.4664,-0.090561,0.072449,0.923721
28.4765,-0.108673,0.054337,0.905609
28.4866,-0.090561,0.054337,0.923721
28.4968,-0.108673,0.054337,0.905609
28.5071,-0.108673,0.054337,0.923721
28.5173,-0.108673,0.054337,0.905609
28.5274,-0.126785,0.054337,0.905609
28.5385,-0.090561,0.054337,0.923721
28.5477,-0.090561,0.054337,0.923721
28.5579,-0.054337,0.072449,0.923721
28.5683,-0.054337,0.072449,0.905609
28.5783,-0.090561,0.072449,0.923721
28.5884,-0.108673,0.054337,0.905609
28.5985,-0.108673,0.054337,0.923721
28.6087,-0.090561,0.054337,0.923721
28.619,-0.090561,0.072449,0.923721
28.629,-0.090561,0.054337,0.905609
28.6392,-0.090561,0.054337,0.923721
28.6494,-0.072449,0.054337,0.923721
28.6595,-0.090561,0.054337,0.905609
28.6698,-0.090561,0.054337,0.923721
28.6798,-0.090561,0.054337,0.923721
28.69,-0.108673,0.072449,0.905609
28.7002,-0.108673,0.054337,0.923721
28.7103,-0.090561,0.072449,0.941833
28.7204,-0.108673,0.054337,0.905609
28.7307,-0.090561,0.054337,0.923721
28.7406,-0.090561,0.054337,0.923721
28.7508,-0.090561,0.054337,0.923721
28.761,-0.108673,0.072449,0.923721
28.7711,-0.090561,0.072449,0.923721
28.7813,-0.072449,0.054337,0.905609
28.7914,-0.090561,0.054337,0.923721
28.8016,-0.090561,0.054337,0.923721
28.8118,-0.108673,0.054337,0.905609
28.8219,-0.090561,0.054337,0.923721
28.8321,-0.108673,0.054337,0.923721
28.8422,-0.090561,0.054337,0.923721
28.8524,-0.108673,0.072449,0.923721
28.8626,-0.108673,0.054337,0.905609
28.8727,-0.090561,0.072449,0.905609
28.8829,-0.090561,0.036224,0.869385
28.8931,-0.108673,0.036224,0.869385
28.9032,-0.072449,0.072449,0.923721
28.9134,-0.090561,0.072449,0.905609
28.9235,-0.144897,0.036224,0.851273
28.9337,-0.054337,0.054337,0.923721
28.9439,-0.090561,0.072449,0.923721
28.954,-0.108673,0.054337,0.905609
28.9642,-0.108673,0.036224,0.905609
28.9743,-0.108673,0.054337,0.923721
28.9845,-0.126785,0.054337,0.923721
28.9947,-0.090561,0.036224,0.923721
29.0049,-0.090561,0.054337,0.923721
29.015,-0.090561,0.072449,0.905609
29.0251,-0.108673,0.072449,0.923721
29.0354,-0.108673,0.090561,0.923721
29.0455,-0.108673,0.108673,0.905609
29.0557,-0.108673,0.090561,0.905609
29.0658,-0.090561,0.054337,0.923721
29.076,-0.072449,0.018112,0.923721
29.0862,-0.090561,0.036224,0.923721
29.0963,-0.090561,0.054337,0.923721
29.1066,-0.108673,0.090561,0.978058
29.1167,-0.108673,0.090561,0.905609
29.1268,-0.090561,0.072449,0.905609
29.1371,-0.036224,0.072449,0.923721
29.1472,-0.054337,0.090561,0.923721
29.1574,-0.090561,0.072449,0.905609
29.1676,-0.144897,0.036224,0.923721
29.1777,-0.144897,0.036224,0.905609
29.1879,-0.144897,0.036224,0.905609
29.1981,-0.126785,0.054337,0.905609
29.2082,-0.126785,0.054337,0.905609
29.2184,-0.144897,0.090561,0.905609
29.2286,-0.144897,0.126785,0.905609
29.2387,-0.144897,0.126785,0.905609
29.2489,-0.126785,0.018112,0.923721
29.259,-0.108673,0.036224,0.923721
29.2692,-0.108673,0.054337,0.996170
29.2794,-0.108673,0.036224,0.996170
29.2895,-0.108673,0.000000,0.959946
29.2997,-0.090561,0.036224,0.923721
29.3099,-0.144897,0.072449,0.905609
29.32,-0.163010,0.072449,0.923721
29.3302,-0.181122,0.072449,0.905609
29.3404,-0.181122,0.072449,0.905609
29.3505,-0.181122,0.072449,0.923721
29.3607,-0.181122,0.054337,0.887497
29.371,-0.181122,0.054337,0.923721
29.381,-0.181122,0.054337,0.923721
29.3912,-0.181122,0.036224,0.941833
29.4014,-0.181122,0.036224,0.941833
29.4116,-0.235458,0.054337,0.887497
29.4218,-0.235458,0.072449,0.887497
29.4319,-0.253571,0.072449,0.905609
29.442,-0.253571,0.072449,0.941833
29.4522,-0.271683,0.054337,0.923721
29.4623,-0.271683,0.054337,0.887497
29.4726,-0.289795,0.072449,0.887497
29.4827,-0.307907,0.072449,0.887497
29.4928,-0.326019,0.072449,0.905609
29.503,-0.326019,0.072449,0.887497
29.5132,-0.326019,0.054337,0.869385
29.5232,-0.326019,0.054337,0.869385
29.5334,-0.344131,0.054337,0.887497
29.5435,-0.362244,0.072449,0.905609
29.5537,-0.380356,0.072449,0.887497
29.5639,-0.380356,0.072449,0.905609
29.574,-0.380356,0.072449,0.923721
29.5842,-0.380356,0.072449,0.923721
29.5944,-0.398468,0.054337,0.869385
29.6046,-0.416580,0.072449,0.833160
29.6149,-0.434692,0.072449,0.833160
29.6249,-0.452805,0.090561,0.887497
29.6351,-0.452805,0.072449,0.887497
29.6452,-0.416580,0.054337,0.869385
29.6554,-0.452805,0.072449,0.887497
29.6656,-0.470917,0.072449,0.905609
29.6758,-0.470917,0.072449,0.887497
29.686,-0.507141,0.054337,0.869385
29.6961,-0.507141,0.072449,0.869385
29.7064,-0.543365,0.072449,0.851273
29.7164,-0.543365,0.054337,0.851273
29.7266,-0.543365,0.054337,0.815048
29.7367,-0.579590,0.054337,0.778824
29.7471,-0.597702,0.054337,0.742599
29.7572,-0.597702,0.090561,0.742599
29.7673,-0.633926,0.108673,0.778824
29.7778,-0.633926,0.108673,0.778824
29.7875,-0.670151,0.090561,0.815048
29.7979,-0.706375,0.090561,0.796936
29.808,-0.706375,0.054337,0.760712
29.8181,-0.742599,0.036224,0.706375
29.8284,-0.742599,0.036224,0.652039
29.8384,-0.760712,0.054337,0.633926
29.8486,-0.796936,0.036224,0.615814
29.8588,-0.796936,0.072449,0.597702
29.8689,-0.815048,0.072449,0.579590
29.8791,-0.833160,0.072449,0.579590
29.8893,-0.869385,0.072449,0.561478
29.8994,-0.905609,0.090561,0.561478
29.9096,-0.905609,0.090561,0.543365
29.9198,-0.905609,0.054337,0.489029
29.9299,-0.887497,0.054337,0.489029
29.9401,-0.923721,0.090561,0.489029
29.9503,-0.941833,0.054337,0.434692
29.9604,-0.941833,0.090561,0.434692
29.9706,-0.978058,0.072449,0.398468
29.9807,-0.978058,0.054337,0.362244
29.9909,-0.996170,0.054337,0.326019
30.0013,-0.978058,0.072449,0.289795
30.0106,-0.959946,0.090561,0.380356
30.0215,-0.959946,0.108673,0.452805
30.0316,-0.959946,0.126785,0.525253
30.0416,-0.959946,0.108673,0.507141
30.052,-0.959946,0.090561,0.489029
30.062,-0.978058,0.072449,0.434692
30.0716,-0.978058,0.090561,0.434692
30.0831,-0.978058,0.090561,0.470917
30.0925,-0.978058,0.090561,0.470917
30.1027,-0.959946,0.090561,0.489029
30.1128,-0.959946,0.090561,0.507141
30.123,-0.959946,0.072449,0.507141
30.1329,-0.978058,0.090561,0.525253
30.1432,-0.978058,0.072449,0.525253
30.1534,-0.978058,0.072449,0.470917
30.1638,-0.959946,0.090561,0.470917
30.1738,-0.959946,0.090561,0.489029
30.1841,-0.978058,0.090561,0.470917
30.194,-0.996170,0.090561,0.434692
30.2043,-1.032394,0.054337,0.362244
30.2137,-1.014282,0.072449,0.326019
30.2246,-1.014282,0.072449,0.289795
30.2348,-1.032394,0.072449,0.307907
30.2446,-1.032394,0.072449,0.307907
30.2549,-1.032394,0.090561,0.307907
30.2651,-1.050507,0.090561,0.326019
30.2756,-1.032394,0.090561,0.326019
30.2855,-1.032394,0.090561,0.344131
30.2957,-1.032394,0.090561,0.344131
30.3058,-1.050507,0.054337,0.307907
30.316,-1.050507,0.072449,0.289795
30.3255,-1.050507,0.090561,0.271683
30.3362,-1.068619,0.072449,0.271683
30.3465,-1.068619,0.054337,0.253571
30.3565,-1.068619,0.072449,0.253571
30.3668,-1.086731,0.072449,0.253571
30.3768,-1.086731,0.090561,0.271683
30.3878,-1.068619,0.090561,0.289795
30.3974,-1.068619,0.072449,0.271683
30.4075,-1.086731,0.072449,0.253571
30.4177,-1.086731,0.090561,0.253571
30.428,-1.104843,0.072449,0.217346
30.4374,-1.086731,0.072449,0.199234
30.4482,-1.086731,0.090561,0.144897
30.4584,-1.104843,0.072449,0.108673
30.4685,-1.104843,0.072449,0.090561
30.4787,-1.104843,0.072449,0.054337
30.4889,-1.104843,0.090561,0.072449
30.4997,-1.122955,0.072449,0.054337
30.5093,-1.122955,0.072449,0.054337
30.5195,-1.104843,0.072449,0.018112
30.5298,-1.104843,0.090561,0.036224
30.54,-1.122955,0.090561,0.000000
30.5494,-1.122955,0.090561,-0.036224
30.5602,-1.122955,0.072449,-0.072449
30.5704,-1.104843,0.090561,-0.090561
30.5805,-1.104843,0.090561,-0.090561
30.5907,-1.086731,0.090561,-0.108673
30.6009,-1.050507,0.072449,-0.144897
30.6117,-1.068619,0.054337,-0.398468
30.6213,-1.068619,0.054337,-0.597702
30.6317,-1.104843,0.054337,-0.507141
30.6418,-1.122955,0.072449,-0.507141
30.652,-1.122955,0.072449,-0.507141
30.6615,-1.104843,0.054337,-0.470917
30.6723,-1.086731,0.054337,-0.380356
30.6825,-1.068619,0.072449,-0.344131
30.6925,-1.086731,0.072449,-0.344131
30.7028,-1.141068,0.036224,-0.362244
30.7129,-1.141068,0.054337,-0.362244
30.7237,-1.159180,0.090561,-0.362244
30.7332,-1.104843,0.108673,-0.326019
30.7437,-1.104843,0.090561,-0.307907
30.7538,-1.104843,0.090561,-0.326019
30.764,-1.104843,0.090561,-0.307907
30.7735,-1.122955,0.090561,-0.307907
30.7842,-1.104843,0.126785,-0.271683
30.7945,-1.104843,0.090561,-0.271683
30.8046,-1.104843,0.090561,-0.289795
30.8149,-1.104843,0.072449,-0.326019
30.825,-1.104843,0.072449,-0.344131
30.8358,-1.104843,0.090561,-0.307907
30.8454,-1.104843,0.090561,-0.271683
30.8557,-1.104843,0.090561,-0.271683
30.8658,-1.104843,0.072449,-0.253571
30.8761,-1.104843,0.090561,-0.253571
30.8855,-1.104843,0.090561,-0.217346
30.8963,-1.104843,0.072449,-0.235458
30.9065,-1.122955,0.072449,-0.253571
30.9164,-1.122955,0.072449,-0.253571
30.9268,-1.122955,0.054337,-0.235458
30.9368,-1.104843,0.072449,-0.217346
30.9477,-1.122955,0.072449,-0.217346
30.9573,-1.122955,0.072449,-0.235458
30.9675,-1.104843,0.072449,-0.235458
30.9777,-1.104843,0.072449,-0.253571
30.9878,-1.104843,0.072449,-0.253571
30.998,-1.122955,0.072449,-0.253571
31.0081,-1.122955,0.090561,-0.217346
31.0183,-1.122955,0.072449,-0.235458
31.0282,-1.104843,0.072449,-0.253571
31.0385,-1.122955,0.072449,-0.235458
31.0487,-1.122955,0.072449,-0.235458
31.0595,-1.122955,0.072449,-0.235458
31.0691,-1.104843,0.072449,-0.235458
31.0792,-1.122955,0.072449,-0.253571
31.0894,-1.141068,0.072449,-0.235458
31.0996,-1.122955,0.072449,-0.235458
31.1098,-1.122955,0.072449,-0.235458
31.12,-1.122955,0.090561,-0.235458
31.1303,-1.104843,0.090561,-0.235458
31.1402,-1.122955,0.072449,-0.235458
31.1505,-1.122955,0.072449,-0.253571
31.1607,-1.122955,0.072449,-0.235458
31.1714,-1.122955,0.090561,-0.235458
31.181,-1.122955,0.072449,-0.235458
31.1911,-1.122955,0.072449,-0.217346
31.2013,-1.122955,0.072449,-0.235458
31.2115,-1.122955,0.072449,-0.235458
31.2219,-1.141068,0.072449,-0.217346
31.2321,-1.122955,0.072449,-0.217346
31.2422,-1.122955,0.072449,-0.235458
31.2522,-1.104843,0.072449,-0.235458
31.2626,-1.122955,0.072449,-0.235458
31.2728,-1.122955,0.072449,-0.235458
31.2836,-1.122955,0.072449,-0.217346
31.2931,-1.122955,0.072449,-0.217346
31.3033,-1.104843,0.072449,-0.217346
31.3135,-1.122955,0.072449,-0.235458
31.3236,-1.122955,0.072449,-0.217346
31.334,-1.122955,0.090561,-0.235458
31.3442,-1.122955,0.090561,-0.235458
31.3544,-1.104843,0.090561,-0.235458
31.3644,-1.122955,0.072449,-0.235458
31.3748,-1.141068,0.072449,-0.235458
31.385,-1.122955,0.072449,-0.217346
31.3958,-1.122955,0.072449,-0.235458
31.4053,-1.122955,0.072449,-0.235458
31.415,-1.122955,0.072449,-0.235458
31.4263,-1.122955,0.072449,-0.217346
31.4359,-1.122955,0.072449,-0.217346
31.4463,-1.122955,0.090561,-0.217346
31.4564,-1.122955,0.072449,-0.217346
31.4667,-1.122955,0.072449,-0.199234
31.4766,-1.122955,0.090561,-0.199234
31.4871,-1.122955,0.072449,-0.217346
31.4973,-1.122955,0.072449,-0.217346
31.5077,-1.122955,0.072449,-0.217346
31.5176,-1.104843,0.072449,-0.199234
31.5278,-1.122955,0.072449,-0.217346
31.5382,-1.122955,0.072449,-0.217346
31.5482,-1.122955,0.072449,-0.199234
31.5584,-1.141068,0.072449,-0.199234
31.5685,-1.122955,0.072449,-0.199234
31.5787,-1.141068,0.090561,-0.199234
31.5889,-1.122955,0.090561,-0.199234
31.5991,-1.122955,0.072449,-0.199234
31.6093,-1.122955,0.072449,-0.199234
31.6201,-1.141068,0.072449,-0.199234
31.6298,-1.122955,0.072449,-0.199234
31.6399,-1.122955,0.072449,-0.181122
31.65,-1.122955,0.072449,-0.181122
31.6602,-1.122955,0.072449,-0.181122
31.6703,-1.122955,0.072449,-0.199234
31.6805,-1.141068,0.072449,-0.199234
31.6905,-1.122955,0.072449,-0.199234
31.7005,-1.141068,0.072449,-0.181122
31.7109,-1.141068,0.072449,-0.181122
31.7211,-1.141068,0.072449,-0.199234
31.732,-1.122955,0.072449,-0.163010
31.7414,-1.122955,0.072449,-0.163010
31.7516,-1.141068,0.072449,-0.163010
31.7619,-1.122955,0.090561,-0.163010
31.7719,-1.122955,0.072449,-0.126785
31.7822,-1.122955,0.072449,-0.163010
31.7923,-1.122955,0.072449,-0.163010
31.8025,-1.141068,0.072449,-0.163010
31.8125,-1.122955,0.072449,-0.163010
31.8229,-1.122955,0.072449,-0.181122
31.8331,-1.122955,0.072449,-0.163010
31.8438,-1.122955,0.072449,-0.163010
31.8534,-1.122955,0.072449,-0.144897
31.8636,-1.122955,0.072449,-0.144897
31.8737,-1.122955,0.072449,-0.144897
31.8839,-1.122955,0.072449,-0.144897
31.8942,-1.122955,0.072449,-0.163010
31.9044,-1.122955,0.072449,-0.181122
31.9146,-1.122955,0.090561,-0.144897
31.9245,-1.141068,0.072449,-0.144897
31.935,-1.141068,0.072449,-0.163010
31.9452,-1.122955,0.072449,-0.163010
31.956,-1.122955,0.072449,-0.144897
31.9655,-1.122955,0.072449,-0.126785
31.9757,-1.122955,0.072449,-0.144897
31.9858,-1.122955,0.072449,-0.144897
31.9955,-1.141068,0.072449,-0.144897
32.0064,-1.122955,0.072449,-0.144897
32.0164,-1.141068,0.072449,-0.144897
32.0265,-1.122955,0.072449,-0.163010
32.0369,-1.122955,0.072449,-0.163010
32.0468,-1.122955,0.072449,-0.163010
32.0574,-1.141068,0.090561,-0.126785
32.068,-1.122955,0.072449,-0.144897
32.0775,-1.122955,0.090561,-0.126785
32.0877,-1.122955,0.072449,-0.163010
32.0978,-1.122955,0.072449,-0.163010
32.108,-1.122955,0.072449,-0.144897
32.1182,-1.141068,0.072449,-0.144897
32.1282,-1.122955,0.072449,-0.163010
32.1384,-1.122955,0.090561,-0.144897
32.1487,-1.141068,0.072449,-0.163010
32.1587,-1.122955,0.090561,-0.163010
32.1689,-1.122955,0.072449,-0.163010
32.1797,-1.122955,0.072449,-0.163010
32.1892,-1.141068,0.072449,-0.163010
32.1994,-1.141068,0.072449,-0.163010
32.2096,-1.122955,0.072449,-0.163010
32.2198,-1.141068,0.072449,-0.144897
32.2297,-1.122955,0.072449,-0.163010
32.241,-1.122955,0.072449,-0.163010
32.2508,-1.122955,0.072449,-0.163010
32.261,-1.122955,0.072449,-0.163010
32.2707,-1.122955,0.090561,-0.163010
32.2809,-1.122955,0.072449,-0.163010
32.2917,-1.122955,0.072449,-0.163010
32.3012,-1.122955,0.072449,-0.144897
32.3114,-1.122955,0.072449,-0.144897
32.3215,-1.141068,0.072449,-0.163010
32.3319,-1.122955,0.090561,-0.144897
32.3418,-1.122955,0.072449,-0.144897
32.3519,-1.122955,0.072449,-0.163010
32.3621,-1.122955,0.072449,-0.144897
32.3725,-1.122955,0.072449,-0.163010
32.3825,-1.141068,0.072449,-0.163010
32.3926,-1.141068,0.072449,-0.144897
32.4028,-1.122955,0.072449,-0.163010
32.413,-1.122955,0.072449,-0.163010
32.4231,-1.141068,0.072449,-0.163010
32.4335,-1.141068,0.072449,-0.163010
32.4437,-1.141068,0.072449,-0.163010
32.4536,-1.122955,0.072449,-0.163010
32.464,-1.122955,0.090561,-0.144897
32.4741,-1.122955,0.090561,-0.144897
32.4845,-1.122955,0.072449,-0.144897
32.4946,-1.141068,0.072449,-0.163010
32.5047,-1.122955,0.072449,-0.163010
32.5149,-1.122955,0.090561,-0.163010
32.5251,-1.122955,0.072449,-0.163010
32.5353,-1.141068,0.072449,-0.144897
32.5454,-1.122955,0.090561,-0.144897
32.5556,-1.141068,0.072449,-0.144897
32.5655,-1.141068,0.072449,-0.144897
32.5758,-1.141068,0.072449,-0.163010
32.586,-1.141068,0.072449,-0.126785
32.5964,-1.122955,0.072449,-0.144897
32.6064,-1.122955,0.090561,-0.163010
32.6166,-1.122955,0.090561,-0.163010
32.6267,-1.122955,0.054337,-0.163010
32.6368,-1.122955,0.072449,-0.163010
32.6472,-1.122955,0.072449,-0.163010
32.6573,-1.122955,0.072449,-0.144897
32.6675,-1.122955,0.072449,-0.163010
32.6771,-1.122955,0.072449,-0.144897
32.6879,-1.122955,0.072449,-0.163010
32.6982,-1.122955,0.072449,-0.144897
32.7086,-1.122955,0.072449,-0.163010
32.7186,-1.141068,0.072449,-0.163010
32.7287,-1.122955,0.072449,-0.144897
32.7389,-1.122955,0.072449,-0.163010
32.7492,-1.122955,0.072449,-0.181122
32.7592,-1.122955,0.072449,-0.163010
